File: data/20200212/OCP_p30_1.txt
Time (s)	WE(1).Potential (V)	Corrected time (s)	Index	dWE(1).Potential/dt (V/s)	OCP value (V)
4.86381	0.00805664	0	1	0	0.00868297
4.96381	0.00804138	0.1	2	-0.000152588
5.06381	0.00803833	0.2	3	3.05102e-05
5.16381	0.00803833	0.3	4	-1.52489e-05
5.26381	0.00804138	0.4	5	4.57839e-05
5.36381	0.00803833	0.5	6	-9.15646e-05
5.46381	0.00804749	0.6	7	0.000213649
5.56381	0.00804749	0.7	8	-0.000116987
5.66381	0.00805969	0.8	9	0.000254316
5.76381	0.00805664	0.9	10	-0.000198378
5.86381	0.00805359	1	11	2.03463e-05
5.96381	0.00804138	1.1	12	-0.00019835
6.06381	0.00805054	1.2	13	0.000300072
6.16381	0.00804138	1.3	14	-0.000315343
6.26381	0.00804443	1.4	15	0.000193281
6.36381	0.0080658	1.5	16	0.000325498
6.46381	0.00804749	1.6	17	-0.000574726
6.56381	0.00806274	1.7	18	0.000564578
6.66381	0.00805054	1.8	19	-0.000462862
6.76381	0.0080658	1.9	20	0.000473019
6.86381	0.00805969	2	21	-0.000330601
6.96381	0.00805359	2.1	22	1.01514e-05
7.06381	0.00805969	2.2	23	0.000162789
7.16381	0.00805664	2.3	24	-0.000147525
7.26381	0.0080719	2.4	25	0.000335702
7.36381	0.00806274	2.5	26	-0.000356029
7.46381	0.00806885	2.6	27	0.000269562
7.56381	0.0080658	2.7	28	-0.000157667
7.66381	0.00805969	2.8	29	-5.59477e-05
7.76381	0.0080658	2.9	30	0.000172906
7.86381	0.00806885	3	31	-3.55952e-05
7.96381	0.00806885	3.1	32	-1.5252e-05
8.06381	0.00806274	3.2	33	-0.000101707
8.16381	0.00806885	3.3	34	0.000183089
8.26381	0.008078	3.4	35	7.6322e-05
8.36381	0.00806274	3.5	36	-0.000366215
8.46381	0.0080658	3.6	37	0.000264474
8.56381	0.00806274	3.7	38	-0.000142399
8.66381	0.00805969	3.8	39	-1.01763e-05
8.76381	0.00806274	3.9	40	8.1379e-05
8.86381	0.00806274	4	41	-4.57652e-05
8.96381	0.00808105	4.1	42	0.000345853
9.06381	0.008078	4.2	43	-0.000269556
9.16381	0.00808105	4.3	44	0.000152569
9.26381	0.0080719	4.4	45	-0.000213615
9.36381	0.00808411	4.5	46	0.000340771
9.46381	0.00808105	4.6	47	-0.000228876
9.56381	0.00808716	4.7	48	0.000188189
9.66381	0.0080658	4.8	49	-0.000473035
9.76381	0.008078	4.9	50	0.000493384
9.86381	0.00807495	5	51	-0.000269575
9.96381	0.00808105	5.1	52	0.000188171
10.0638	0.00809326	5.2	53	0.000142437
10.1638	0.00809021	5.3	54	-0.000178022
10.2638	0.0080719	5.4	55	-0.000259411
10.3638	0.00807495	5.5	56	0.000259411
10.4638	0.00808716	5.6	57	0.000127141
10.5638	0.00809631	5.7	58	3.56014e-05
10.6638	0.00808716	5.8	59	-0.000233964
10.7638	0.00809937	5.9	60	0.000361118
10.8638	0.00809326	6	61	-0.000284805
10.9638	0.00808411	6.1	62	-5.59663e-05
11.0638	0.00809021	6.2	63	0.000198387
11.1638	0.00809326	6.3	64	-4.57901e-05
11.2638	0.00808105	6.4	65	-0.000239061
11.3638	0.00809021	6.5	66	0.000320447
11.4638	0.00808716	6.6	67	-0.000203469
11.5638	0.008078	6.7	68	-0.000101707
11.6638	0.00809021	6.8	69	0.000320434
11.7638	0.00809021	6.9	70	-0.000172941
11.8638	0.00809326	7	71	9.66403e-05
11.9638	0.00809326	7.1	72	-3.55921e-05
12.0638	0.00809937	7.2	73	0.000122062
12.1638	0.00809021	7.3	74	-0.000239033
12.2638	0.00809631	7.4	75	0.000239021
12.3638	0.00809326	7.5	76	-0.000157651
12.4638	0.00809937	7.6	77	0.000167834
12.5638	0.00809631	7.7	78	-0.000137321
12.6638	0.00810547	7.8	79	0.000223797
12.7638	0.00809937	7.9	80	-0.000228904
12.8638	0.00810242	8	81	0.000157698
12.9638	0.00809937	8.1	82	-0.000111911
13.0638	0.00810852	8.2	83	0.000213649
13.1638	0.00810547	8.3	84	-0.000172941
13.2638	0.00810242	8.4	85	1.01607e-05
13.3638	0.00810852	8.5	86	0.000137345
13.4638	0.00811157	8.6	87	-2.54469e-05
13.5638	0.00810547	8.7	88	-0.000127144
13.6638	0.00811157	8.8	89	0.00019325
13.7638	0.00809631	8.9	90	-0.000371294
13.8638	0.00810242	9	91	0.000310264
13.9638	0.00811157	9.1	92	4.57652e-05
14.0638	0.00810852	9.2	93	-0.000142399
14.1638	0.00811462	9.3	94	0.000178007
14.2638	0.00810852	9.4	95	-0.00019325
14.3638	0.00811462	9.5	96	0.000203432
14.4638	0.00812073	9.6	97	2.0368e-05
14.5638	0.00811768	9.7	98	-0.000106835
14.6638	0.00810242	9.8	99	-0.000223788
14.7638	0.00810547	9.9	100	0.0002238
14.8638	0.00811768	10	101	0.000137314
14.9638	0.00811462	10.1	102	-0.000188189
15.0638	0.00811768	10.2	103	0.000132257
15.1638	0.00812378	10.3	104	6.6124e-05
15.2638	0.00812073	10.4	105	-0.000116984
15.3638	0.00812683	10.5	106	0.000167824
15.4638	0.00812988	10.6	107	-2.54251e-05
15.5638	0.00811462	10.7	108	-0.000294997
15.6638	0.00812378	10.8	109	0.000356057
15.7638	0.00812683	10.9	110	-0.000101747
15.8638	0.00812683	11	111	-5.08813e-06
15.9638	0.00812988	11.1	112	6.61178e-05
16.0638	0.00813599	11.2	113	7.63126e-05
16.1638	0.00812073	11.3	114	-0.000340796
16.2638	0.00812073	11.4	115	0.000198363
16.3638	0.00813904	11.5	116	0.000284833
16.4638	0.00812683	11.6	117	-0.000437427
16.5638	0.00812988	11.7	118	0.000259402
16.6638	0.00814209	11.8	119	0.000147503
16.7638	0.00812073	11.9	120	-0.000523882
16.8638	0.00813904	12	121	0.000625604
16.9638	0.00812378	12.1	122	-0.000564562
17.0638	0.00812988	12.2	123	0.000350944
17.1638	0.00812378	12.3	124	-0.000233942
17.2638	0.00812988	12.4	125	0.000203432
17.3638	0.00812073	12.5	126	-0.000259377
17.4638	0.00814514	12.6	127	0.00057472
17.5638	0.00814514	12.7	128	-0.000315331
17.6638	0.00813904	12.8	129	-3.05008e-05
17.7638	0.00813599	12.9	130	1.5252e-05
17.8638	0.00812988	13	131	-9.66559e-05
17.9638	0.00813293	13.1	132	0.000117005
18.0638	0.00814209	13.2	133	0.00011188
18.1638	0.00814209	13.3	134	-9.66434e-05
18.2638	0.00813904	13.4	135	-2.54189e-05
18.3638	0.00813904	13.5	136	3.56076e-05
18.4638	0.00813904	13.6	137	-1.01638e-05
18.5638	0.00813904	13.7	138	6.20882e-09
18.6638	0.00814209	13.8	139	5.59353e-05
18.7638	0.00814819	13.9	140	7.63002e-05
18.8638	0.0081543	14	141	5.08689e-05
18.9638	0.00812683	14.1	142	-0.000554417
19.0638	0.00813293	14.2	143	0.000452685
19.1638	0.00814514	14.3	144	6.10265e-05
19.2638	0.00814514	14.4	145	-0.000122059
19.3638	0.00813904	14.5	146	-7.11904e-05
19.4638	0.0081543	14.6	147	0.000350951
19.5638	0.00813599	14.7	148	-0.000534055
19.6638	0.0081543	14.8	149	0.000600176
19.7638	0.00814819	14.9	150	-0.000386555
19.8638	0.00815735	15	151	0.000300082
19.9638	0.00815125	15.1	152	-0.000239046
20.0638	0.0081543	15.2	153	0.000157667
20.1638	0.00815735	15.3	154	-6.20882e-09
20.2638	0.00813904	15.4	155	-0.000361108
20.3638	0.00814819	15.5	156	0.000391634
20.4638	0.00814209	15.6	157	-0.000279751
20.5638	0.00814514	15.7	158	0.000157673
20.6638	0.00815125	15.8	159	5.59663e-05
20.7638	0.00814819	15.9	160	-0.000117005
20.8638	0.0081604	16	161	0.000279748
20.9638	0.00814819	16.1	162	-0.00037637
21.0638	0.0081604	16.2	163	0.000406889
21.1638	0.0081665	16.3	164	-7.11873e-05
21.2638	0.00816345	16.4	165	-8.64889e-05
21.3638	0.0081604	16.5	166	3.10441e-09
21.4638	0.0081604	16.6	167	2.54407e-05
21.5638	0.00815735	16.7	168	-6.6124e-05
21.6638	0.0081543	16.8	169	-2.0337e-05
21.7638	0.0081665	16.9	170	0.000249225
21.8638	0.00815735	17	171	-0.000320456
21.9638	0.00814209	17.1	172	-0.000132242
22.0638	0.0081604	17.2	173	0.000483192
22.1638	0.00815735	17.3	174	-0.000320431
22.2638	0.00815735	17.4	175	9.66279e-05
22.3638	0.00817261	17.5	176	0.000269565
22.4638	0.0081543	17.6	177	-0.000513699
22.5638	0.00815735	17.7	178	0.000320419
22.6638	0.00816345	17.8	179	1.52675e-05
22.7638	0.00815735	17.9	180	-0.000172947
22.8638	0.00815735	18	181	9.15491e-05
22.9638	0.0081604	18.1	182	3.56014e-05
23.0638	0.00816956	18.2	183	0.000132267
23.1638	0.00817261	18.3	184	-4.07113e-05
23.2638	0.0081604	18.4	185	-0.000228879
23.3638	0.00817261	18.5	186	0.000376385
23.4638	0.00817261	18.6	187	-0.000183117
23.5638	0.00818176	18.7	188	0.000208545
23.6638	0.00816956	18.8	189	-0.000330614
23.7638	0.00817261	18.9	190	0.000228876
23.8638	0.0081665	19	191	-0.00018818
23.9638	0.00817566	19.1	192	0.000249204
24.0638	0.00816345	19.2	193	-0.000350929
24.1638	0.00818176	19.3	194	0.000508624
24.2638	0.00818787	19.4	195	-0.00014244
24.3638	0.00817566	19.5	196	-0.000233961
24.4638	0.00817871	19.6	197	0.000218721
24.5638	0.00817566	19.7	198	-0.000132254
24.6638	0.0081665	19.8	199	-0.00012205
24.7638	0.00818176	19.9	200	0.000376366
24.8638	0.00818176	20	201	-0.000208539
24.9638	0.00819092	20.1	202	0.000218696
25.0638	0.00817871	20.2	203	-0.000330586
25.1638	0.00817566	20.3	204	0.000116971
25.2638	0.00818787	20.4	205	0.000218715
25.3638	0.00819397	20.5	206	-4.06926e-05
25.4638	0.00817871	20.6	207	-0.000310264
25.5638	0.00818176	20.7	208	0.00025432
25.6638	0.00817871	20.8	209	-0.00014243
25.7638	0.00817871	20.9	210	4.57839e-05
25.8638	0.00818481	21	211	0.000101735
25.9638	0.00819397	21.1	212	9.66341e-05
26.0638	0.00819092	21.2	213	-0.000142418
26.1638	0.00819397	21.3	214	0.000122084
26.2638	0.00819397	21.4	215	-4.57839e-05
26.3638	0.00818787	21.5	216	-0.000101735
26.4638	0.00819397	21.6	217	0.000183111
26.5638	0.00819702	21.7	218	-3.56014e-05
26.6638	0.00819397	21.8	219	-7.12214e-05
26.7638	0.00818787	21.9	220	-6.6124e-05
26.8638	0.00819092	22	221	0.000116984
26.9638	0.00819092	22.1	222	-5.59415e-05
27.0638	0.00819092	22.2	223	1.01763e-05
27.1638	0.00819397	22.3	224	5.5957e-05
27.2638	0.00820313	22.4	225	0.000132226
27.3638	0.00820313	22.5	226	-9.66434e-05
27.4638	0.00818787	22.6	227	-0.000249235
27.5638	0.00818787	22.7	228	0.000178013
27.6638	0.00820618	22.8	229	0.00028483
27.7638	0.00819702	22.9	230	-0.000381451
27.8638	0.00819397	23	231	0.000111877
27.9638	0.00820007	23.1	232	0.000117002
28.0638	0.00819702	23.2	233	-0.00013733
28.1638	0.00820618	23.3	234	0.000223778
28.2638	0.00820007	23.4	235	-0.000228851
28.3638	0.00820007	23.5	236	0.000101722
28.4638	0.00820007	23.6	237	-2.0337e-05
28.5638	0.00820618	23.7	238	0.000111889
28.6638	0.00820007	23.8	239	-0.00018308
28.7638	0.00821533	23.9	240	0.000371294
28.8638	0.00820618	24	241	-0.000366218
28.9638	0.00820007	24.1	242	4.58025e-05
29.0638	0.00820618	24.2	243	0.000152569
29.1638	0.00821228	24.3	244	2.0368e-05
29.2638	0.00821838	24.4	245	6.10017e-05
29.3638	0.00822144	24.5	246	5.09434e-06
29.4638	0.00820313	24.6	247	-0.000350951
29.5638	0.00820923	24.7	248	0.000335692
29.6638	0.00819702	24.8	249	-0.000356036
29.7638	0.00820618	24.9	250	0.000330589
29.8638	0.00821533	25	251	2.03774e-05
29.9638	0.00821838	25.1	252	-2.0368e-05
30.0638	0.00821533	25.2	253	-6.10172e-05
30.1638	0.00821228	25.3	254	-1.01763e-05
30.2638	0.00820923	25.4	255	-3.05288e-05
30.3638	0.00821533	25.5	256	0.000137345
30.4638	0.00821838	25.6	257	-2.54469e-05
30.5638	0.00821838	25.7	258	-1.52613e-05
30.6638	0.00822144	25.8	259	6.61178e-05
30.7638	0.00820313	25.9	260	-0.000371294
30.8638	0.00820618	26	261	0.000279739
30.9638	0.00822449	26.1	262	0.000239068
31.0638	0.00821228	26.2	263	-0.000427248
31.1638	0.00821838	26.3	264	0.000315324
31.2638	0.00822144	26.4	265	-5.59415e-05
31.3638	0.00822449	26.5	266	4.07019e-05
31.4638	0.00821533	26.6	267	-0.000193274
31.5638	0.00822449	26.7	268	0.000284827
31.6638	0.00822449	26.8	269	-0.000137327
31.7638	0.00822144	26.9	270	-2.54375e-05
31.8638	0.00821533	27	271	-7.62692e-05
31.9638	0.00822449	27.1	272	0.00022887
32.0638	0.00821533	27.2	273	-0.00029499
32.1638	0.00823364	27.3	274	0.000473007
32.2638	0.00821838	27.4	275	-0.000523888
32.3638	0.00822144	27.5	276	0.000295
32.4638	0.00821838	27.6	277	-0.000142412
32.5638	0.00822754	27.7	278	0.000213627
32.6638	0.00822449	27.8	279	-0.00017295
32.7638	0.00822449	27.9	280	6.61302e-05
32.8638	0.00821228	28	281	-0.000233964
32.9638	0.00823059	28.1	282	0.000478104
33.0638	0.00822144	28.2	283	-0.000422163
33.1638	0.00823059	28.3	284	0.00033572
33.2638	0.00822449	28.4	285	-0.000249241
33.3638	0.00822754	28.5	286	0.000157682
33.4638	0.00823364	28.6	287	5.59229e-05
33.5638	0.00823364	28.7	288	-6.10327e-05
33.6638	0.00823975	28.8	289	0.000132245
33.7638	0.00823669	28.9	290	-0.000127163
33.8638	0.00823669	29	291	5.59601e-05
33.9638	0.0082489	29.1	292	0.000213621
34.0638	0.00824585	29.2	293	-0.000198356
34.1638	0.00822754	29.3	294	-0.000259402
34.2638	0.00823059	29.4	295	0.000259398
34.3638	0.00823059	29.5	296	-9.66279e-05
34.4638	0.00823364	29.6	297	6.61084e-05
34.5638	0.00823975	29.7	298	7.63002e-05
34.6638	0.00823975	29.8	299	-6.10389e-05
34.7638	0.00823975	29.9	300	2.03463e-05
34.8638	0.0082489	30	301	0.000167837
34.9638	0.00824585	30.1	302	-0.000162746
35.0638	0.00823364	30.2	303	-0.000157692
35.1638	0.0082489	30.3	304	0.000411986
35.2638	0.008255	30.4	305	-0.00010681
35.3638	0.0082428	30.5	306	-0.000244137
35.4638	0.00824585	30.6	307	0.000218706
35.5638	0.00824585	30.7	308	-7.62816e-05
35.6638	0.0082428	30.8	309	-4.57745e-05
35.7638	0.00824585	30.9	310	9.15491e-05
35.8638	0.0082489	31	311	1.01638e-05
35.9638	0.0082489	31.1	312	-2.54344e-05
36.0638	0.00825195	31.2	313	6.61178e-05
36.1638	0.00825806	31.3	314	7.63126e-05
36.2638	0.0082428	31.4	315	-0.000340796
36.3638	0.00823669	31.5	316	8.64548e-05
36.4638	0.00825195	31.6	317	0.000300107
36.5638	0.008255	31.7	318	-0.000142409
36.6638	0.0082428	31.8	319	-0.000208539
36.7638	0.00825806	31.9	320	0.000432323
36.8638	0.008255	32	321	-0.000274666
36.9638	0.00825806	32.1	322	0.000142427
37.0638	0.00826111	32.2	323	1.01669e-05
37.1638	0.0082428	32.3	324	-0.000361118
37.2638	0.00825806	32.4	325	0.000503532
37.3638	0.00825195	32.5	326	-0.000350966
37.4638	0.00824585	32.6	327	1.02042e-05
37.5638	0.008255	32.7	328	0.000218696
37.6638	0.0082428	32.8	329	-0.000350944
37.7638	0.00827332	32.9	330	0.000732411
37.8638	0.008255	33	331	-0.00073243
37.9638	0.00826416	33.1	332	0.000483192
38.0638	0.00826111	33.2	333	-0.000223782
38.1638	0.00826416	33.3	334	0.000122053
38.2638	0.00826416	33.4	335	-4.57777e-05
38.3638	0.00826416	33.5	336	1.01638e-05
38.4638	0.00826721	33.6	337	5.59477e-05
38.5638	0.008255	33.7	338	-0.000259386
38.6638	0.00826111	33.8	339	0.00026449
38.7638	0.00827026	33.9	340	5.59446e-05
38.8638	0.008255	34	341	-0.000366209
38.9638	0.00826721	34.1	342	0.000432327
39.0638	0.00827026	34.2	343	-0.000137314
39.1638	0.008255	34.3	344	-0.000274666
39.2638	0.00826416	34.4	345	0.000356029
39.3638	0.00827026	34.5	346	-4.57714e-05
39.4638	0.00827026	34.6	347	-4.06926e-05
39.5638	0.00826111	34.7	348	-0.000147491
39.6638	0.00826721	34.8	349	0.0002187
39.7638	0.00826111	34.9	350	-0.000213596
39.8638	0.00827332	35	351	0.00031534
39.9638	0.00826416	35.1	352	-0.000330629
40.0638	0.00826721	35.2	353	0.000203457
40.1638	0.00825806	35.3	354	-0.000233952
40.2638	0.00827332	35.4	355	0.000396713
40.3638	0.00829163	35.5	356	0.00012716
40.4638	0.00827026	35.6	357	-0.000554401
40.5638	0.00827332	35.7	358	0.000366218
40.6638	0.00826721	35.8	359	-0.000218731
40.7638	0.00827942	35.9	360	0.000305188
40.8638	0.00827026	36	361	-0.000330611
40.9638	0.00827942	36.1	362	0.000315337
41.0638	0.00827942	36.2	363	-0.000137333
41.1638	0.00827637	36.3	364	-2.54189e-05
41.2638	0.00826416	36.4	365	-0.000188208
41.3638	0.00827942	36.5	366	0.000411986
41.4638	0.00827637	36.6	367	-0.000274647
41.5638	0.00826416	36.7	368	-0.000137345
41.6638	0.00828552	36.8	369	0.000523894
41.7638	0.00826416	36.9	370	-0.000681574
41.8638	0.00827942	37	371	0.000600176
41.9638	0.00827942	37.1	372	-0.000249235
42.0638	0.00829773	37.2	373	0.000386555
42.1638	0.00828247	37.3	374	-0.000493359
42.2638	0.00827332	37.4	375	7.12214e-05
42.3638	0.00829468	37.5	376	0.00044756
42.4638	0.00827942	37.6	377	-0.000559486
42.5638	0.00827942	37.7	378	0.000249219
42.6638	0.00826721	37.8	379	-0.00027466
42.7638	0.00828552	37.9	380	0.000478123
42.8638	0.00828857	38	381	-0.000198366
42.9638	0.00827942	38.1	382	-0.00014244
43.0638	0.00829773	38.2	383	0.000452685
43.1638	0.00827332	38.3	384	-0.000691716
43.2638	0.00829773	38.4	385	0.000793432
43.3638	0.00830383	38.5	386	-0.000254285
43.4638	0.00830078	38.6	387	-4.57994e-05
43.5638	0.00828552	38.7	388	-0.000223788
43.6638	0.00829773	38.8	389	0.000391637
43.7638	0.00829468	38.9	390	-0.000249222
43.8638	0.00827942	39	391	-0.000203463
43.9638	0.00829163	39.1	392	0.000391656
44.0638	0.00829468	39.2	393	-0.000137345
44.1638	0.00828552	39.3	394	-0.000162752
44.2638	0.00828857	39.4	395	0.000172934
44.3638	0.00828552	39.5	396	-0.000122084
44.4638	0.00828857	39.6	397	0.000101738
44.5638	0.00829773	39.7	398	0.00012205
44.6638	0.00830688	39.8	399	7.124e-05
44.7638	0.00829468	39.9	400	-0.000300113
44.8638	0.00830383	40	401	0.000340793
44.9638	0.00828857	40.1	402	-0.00042726
45.0638	0.00829163	40.2	403	0.00026449
45.1638	0.00830994	40.3	404	0.000249219
45.2638	0.00831299	40.4	405	-0.0001475
45.3638	0.00829468	40.5	406	-0.000310261
45.4638	0.00830688	40.6	407	0.0004476
45.5638	0.00830994	40.7	408	-0.000147519
45.6638	0.00830078	40.8	409	-0.000162752
45.7638	0.00830994	40.9	410	0.000284817
45.8638	0.00829468	41	411	-0.000417078
45.9638	0.00830383	41.1	412	0.000376391
46.0638	0.00831604	41.2	413	6.61053e-05
46.1638	0.00829773	41.3	414	-0.000447588
46.2638	0.00830994	41.4	415	0.000478114
46.3638	0.00830688	41.5	416	-0.000259392
46.4638	0.00830994	41.6	417	0.000132226
46.5638	0.00830994	41.7	418	-4.57777e-05
46.6638	0.00830994	41.8	419	1.01638e-05
46.7638	0.00830078	41.9	420	-0.000167843
46.8638	0.00830994	42	421	0.000274647
46.9638	0.00830994	42.1	422	-0.000137333
47.0638	0.00831604	42.2	423	0.000142418
47.1638	0.00832214	42.3	424	4.06988e-05
47.2638	0.00830383	42.4	425	-0.000386555
47.3638	0.00830383	42.5	426	0.000233961
47.4638	0.00832214	42.6	427	0.00027466
47.5638	0.00830688	42.7	428	-0.000493356
47.6638	0.00830994	42.8	429	0.00029499
47.7638	0.00831299	42.9	430	-3.05164e-05
47.8638	0.00831604	43	431	3.05288e-05
47.9638	0.00830688	43.1	432	-0.000193274
48.0638	0.00830688	43.2	433	0.00011699
48.1638	0.00831604	43.3	434	0.000137327
48.2638	0.00831299	43.4	435	-0.000162764
48.3638	0.0083313	43.5	436	0.000401829
48.4638	0.00830688	43.6	437	-0.000671385
48.5638	0.00832214	43.7	438	0.000625617
48.6638	0.00831604	43.8	439	-0.0003713
48.7638	0.00832825	43.9	440	0.000345862
48.8638	0.00832825	44	441	-0.000162752
48.9638	0.00831909	44.1	442	-0.000127144
49.0638	0.00832214	44.2	443	0.000162749
49.1638	0.00831299	44.3	444	-0.00023397
49.2638	0.00831604	44.4	445	0.00017295
49.3638	0.00832825	44.5	446	0.000157661
49.4638	0.00832825	44.6	447	-0.000132232
49.5638	0.0083252	44.7	448	-1.52613e-05
49.6638	0.00832825	44.8	449	9.1546e-05
49.7638	0.00831909	44.9	450	-0.000213605
49.8638	0.0083252	45	451	0.000228851
49.9638	0.00831909	45.1	452	-0.000213605
50.0638	0.00831604	45.2	453	3.55859e-05
50.1638	0.0083313	45.3	454	0.000295012
50.2638	0.00832825	45.4	455	-0.000244146
50.3638	0.0083252	45.5	456	3.05226e-05
50.4638	0.0083313	45.6	457	0.000137327
50.5638	0.0083374	45.7	458	3.05257e-05
50.6638	0.0083313	45.8	459	-0.000162764
50.7638	0.00833435	45.9	460	0.000147509
50.8638	0.0083313	46	461	-0.000111914
50.9638	0.00834961	46.1	462	0.000381483
51.0638	0.0083313	46.2	463	-0.000559505
51.1638	0.00833435	46.3	464	0.00033062
51.2638	0.00833435	46.4	465	-9.66496e-05
51.3638	0.0083374	46.5	466	6.6124e-05
51.4638	0.00832825	46.6	467	-0.000203454
51.5638	0.00835266	46.7	468	0.000564602
51.6638	0.0083374	46.8	469	-0.000595097
51.7638	0.0083374	46.9	470	0.000259408
51.8638	0.00833435	47	471	-0.00010681
51.9638	0.0083313	47.1	472	-2.03587e-05
52.0638	0.00834045	47.2	473	0.000193274
52.1638	0.00833435	47.3	474	-0.000228873
52.2638	0.00834961	47.4	475	0.000381458
52.3638	0.0083374	47.5	476	-0.000422157
52.4638	0.00834656	47.6	477	0.000361127
52.5638	0.0083374	47.7	478	-0.000315337
52.6638	0.00833435	47.8	479	8.1379e-05
52.7638	0.00834351	47.9	480	0.000172916
52.8638	0.00833435	48	481	-0.000284805
52.9638	0.0083374	48.1	482	0.000193265
53.0638	0.00834045	48.2	483	-1.01794e-05
53.1638	0.00834045	48.3	484	-2.54344e-05
53.2638	0.00834656	48.4	485	0.000122072
53.3638	0.00834961	48.5	486	-1.52551e-05
53.4638	0.00834656	48.6	487	-7.12214e-05
53.5638	0.00834656	48.7	488	4.57839e-05
53.6638	0.00834961	48.8	489	4.57808e-05
53.7638	0.00834656	48.9	490	-9.15677e-05
53.8638	0.00834961	49	491	0.000101738
53.9638	0.00833435	49.1	492	-0.000325532
54.0638	0.00835571	49.2	493	0.000579817
54.1638	0.00834961	49.3	494	-0.000411971
54.2638	0.00834351	49.4	495	3.04946e-05
54.3638	0.00834961	49.5	496	0.000162789
54.4638	0.00834961	49.6	497	-9.15708e-05
54.5638	0.00834656	49.7	498	-3.56107e-05
54.6638	0.00834656	49.8	499	3.56107e-05
54.7638	0.00835876	49.9	500	0.000213618
54.8638	0.00836182	50	501	-8.64517e-05
54.9638	0.00834961	50.1	502	-0.000218712
55.0638	0.00836182	50.2	503	0.00037637
55.1638	0.00835876	50.3	504	-0.000239052
55.2638	0.00836792	50.4	505	0.000244165
55.3638	0.00835876	50.5	506	-0.000284848
55.4638	0.00836182	50.6	507	0.000193296
55.5638	0.00835266	50.7	508	-0.000233967
55.6638	0.00836792	50.8	509	0.000396734
55.7638	0.00836792	50.9	510	-0.00020853
55.8638	0.00835266	51	511	-0.000228876
55.9638	0.00834961	51.1	512	0.000122072
56.0638	0.00836487	51.2	513	0.000264477
56.1638	0.00837097	51.3	514	-7.63126e-05
56.2638	0.00836182	51.4	515	-0.00018818
56.3638	0.00835876	51.5	516	7.11997e-05
56.4638	0.00837402	51.6	517	0.000284842
56.5638	0.00837097	51.7	518	-0.000244143
56.6638	0.00836182	51.8	519	-8.13821e-05
56.7638	0.00837097	51.9	520	0.000264474
56.8638	0.00836182	52	521	-0.00030517
56.9638	0.00836182	52.1	522	0.000137327
57.0638	0.00837708	52.2	523	0.000249228
57.1638	0.00837097	52.3	524	-0.000289927
57.2638	0.00836182	52.4	525	-4.57714e-05
57.3638	0.00836792	52.5	526	0.000198372
57.4638	0.00836487	52.6	527	-0.000157673
57.5638	0.00835876	52.7	528	-5.59663e-05
57.6638	0.00836792	52.8	529	0.000228913
57.7638	0.00836792	52.9	530	-0.00012716
57.8638	0.00835571	53	531	-0.00019329
57.9638	0.00836182	53.1	532	0.00025432
58.0638	0.00837097	53.2	533	5.59353e-05
58.1638	0.00837708	53.3	534	2.54375e-05
58.2638	0.00836792	53.4	535	-0.00020853
58.3638	0.00837097	53.5	536	0.000183092
58.4638	0.00836487	53.6	537	-0.000178007
58.5638	0.00837097	53.7	538	0.00019325
58.6638	0.00837708	53.8	539	2.03587e-05
58.7638	0.00837097	53.9	540	-0.000162774
58.8638	0.00836792	54	541	3.562e-05
58.9638	0.00836792	54.1	542	1.52613e-05
59.0638	0.00838318	54.2	543	0.000269581
59.1638	0.00837097	54.3	544	-0.000401829
59.2638	0.00836487	54.4	545	8.13915e-05
59.3638	0.00836487	54.5	546	3.05039e-05
59.4638	0.00837402	54.6	547	0.000147491
59.5638	0.00837402	54.7	548	-0.000106795
59.6638	0.00836487	54.8	549	-0.000137317
59.7638	0.00837402	54.9	550	0.000274632
59.8638	0.00838013	55	551	-2.54034e-05
59.9638	0.00837708	55.1	552	-9.66621e-05
60.0638	0.00837097	55.2	553	-5.59508e-05
60.1638	0.00837708	55.3	554	0.000172937
60.2638	0.00838623	55.4	555	7.62816e-05
60.3638	0.00837402	55.5	556	-0.000310261
60.4638	0.00838013	55.6	557	0.000284848
60.5638	0.00838013	55.7	558	-0.000111914
60.6638	0.00838013	55.8	559	2.03432e-05
60.7638	0.00838013	55.9	560	-3.10441e-09
60.8638	0.00837097	56	561	-0.000167865
60.9638	0.00838928	56.1	562	0.000442512
61.0638	0.00837708	56.2	563	-0.000467925
61.1638	0.00838013	56.3	564	0.000259398
61.2638	0.00839539	56.4	565	0.000203441
61.3638	0.00839233	56.5	566	-0.000223803
61.4638	0.00838013	56.6	567	-0.000137317
61.5638	0.00838623	56.7	568	0.000244115
61.6638	0.00838013	56.8	569	-0.000223778
61.7638	0.00838623	56.9	570	0.000203423
61.8638	0.00839233	57	571	2.03587e-05
61.9638	0.00838318	57.1	572	-0.000218703
62.0638	0.00839233	57.2	573	0.000295
62.1638	0.00838623	57.3	574	-0.000249235
62.2638	0.00838318	57.4	575	4.57901e-05
62.3638	0.00838623	57.5	576	7.11904e-05
62.4638	0.00838623	57.6	577	-4.57777e-05
62.5638	0.00839844	57.7	578	0.00023398
62.6638	0.00838623	57.8	579	-0.000366227
62.7638	0.00839233	57.9	580	0.000295012
62.8638	0.00839539	58	581	-5.59477e-05
62.9638	0.00839233	58.1	582	-7.12214e-05
63.0638	0.00838623	58.2	583	-6.6124e-05
63.1638	0.00839233	58.3	584	0.000172937
63.2638	0.00839539	58.4	585	-3.56014e-05
63.3638	0.00839233	58.5	586	-7.12214e-05
63.4638	0.00839539	58.6	587	0.000101738
63.5638	0.00838623	58.7	588	-0.000213649
63.6638	0.00840454	58.8	589	0.000452685
63.7638	0.00839844	58.9	590	-0.000356017
63.8638	0.00840454	59	591	0.000244125
63.9638	0.00839539	59.1	592	-0.000259377
64.0638	0.00840759	59.2	593	0.000350929
64.1638	0.00839844	59.3	594	-0.000340762
64.2638	0.00839539	59.4	595	9.15522e-05
64.3638	0.0084137	59.5	596	0.000340777
64.4638	0.00840149	59.6	597	-0.0004476
64.5638	0.00841064	59.7	598	0.000371309
64.6638	0.00839844	59.8	599	-0.000371306
64.7638	0.00839844	59.9	600	0.000172947
64.8638	0.00840759	60	601	0.000127154
64.9638	0.00840454	60.1	602	-0.000162764
65.0638	0.00840759	60.2	603	0.000122084
65.1638	0.00840454	60.3	604	-0.000101738
65.2638	0.0084137	60.4	605	0.000213649
65.3638	0.00839844	60.5	606	-0.000396731
65.4638	0.00841064	60.6	607	0.000432336
65.5638	0.00840759	60.7	608	-0.000249241
65.6638	0.00840759	60.8	609	7.63002e-05
65.7638	0.00840759	60.9	610	-1.01732e-05
65.8638	0.00840149	61	611	-0.000111908
65.9638	0.00841064	61.1	612	0.000239065
66.0638	0.00839233	61.2	613	-0.000462868
66.1638	0.00840149	61.3	614	0.000411986
66.2638	0.00841064	61.4	615	9.31323e-09
66.3638	0.00841675	61.5	616	3.55766e-05
66.4638	0.00840759	61.6	617	-0.000208523
66.5638	0.00840759	61.7	618	0.000127154
66.6638	0.0084198	61.8	619	0.000193274
66.7638	0.0084137	61.9	620	-0.000254289
66.8638	0.0084137	62	621	0.000111895
66.9638	0.0084137	62.1	622	-2.0337e-05
67.0638	0.0084198	62.2	623	0.000111889
67.1638	0.00840759	62.3	624	-0.000294987
67.2638	0.00841675	62.4	625	0.000330589
67.3638	0.0084137	62.5	626	-0.000203435
67.4638	0.00841064	62.6	627	1.01701e-05
67.5638	0.00841675	62.7	628	0.000137308
67.6638	0.0084198	62.8	629	-2.54251e-05
67.7638	0.00841675	62.9	630	-7.12059e-05
67.8638	0.0084137	63	631	-1.01638e-05
67.9638	0.0084198	63.1	632	0.000137317
68.0638	0.00841064	63.2	633	-0.000249204
68.1638	0.00842896	63.3	634	0.000462837
68.2638	0.00840759	63.4	635	-0.00063578
68.3638	0.0084259	63.5	636	0.000645963
68.4638	0.00841064	63.6	637	-0.000564587
68.5638	0.00841675	63.7	638	0.000350935
68.6638	0.00841675	63.8	639	-0.000122069
68.7638	0.00842285	63.9	640	0.000132245
68.8638	0.00842896	64	641	4.06988e-05
68.9638	0.00842285	64.1	642	-0.000162764
69.0638	0.00842896	64.2	643	0.000203463
69.1638	0.00842896	64.3	644	-9.15491e-05
69.2638	0.00841675	64.4	645	-0.000203463
69.3638	0.0084198	64.5	646	0.000198366
69.4638	0.00841675	64.6	647	-0.000132242
69.5638	0.0084259	64.7	648	0.000213627
69.6638	0.00842896	64.8	649	-6.1042e-05
69.7638	0.00841675	64.9	650	-0.000228888
69.8638	0.00843506	65	651	0.000488284
69.9638	0.00843506	65.1	652	-0.000254307
70.0638	0.00843811	65.2	653	0.000116993
70.1638	0.00843506	65.3	654	-9.15646e-05
70.2638	0.00843506	65.4	655	4.5787e-05
70.3638	0.00843506	65.5	656	-1.01701e-05
70.4638	0.00841675	65.6	657	-0.000335696
70.5638	0.0084259	65.7	658	0.000381473
70.6638	0.0084259	65.8	659	-0.000167859
70.7638	0.00842896	65.9	660	8.64703e-05
70.8638	0.00843201	66	661	2.0337e-05
70.9638	0.00842896	66.1	662	-8.13635e-05
71.0638	0.00844116	66.2	663	0.000269568
71.1638	0.00843811	66.3	664	-0.000208548
71.2638	0.00843506	66.4	665	2.03463e-05
71.3638	0.00842896	66.5	666	-8.64423e-05
71.4638	0.00843201	66.6	667	0.000116962
71.5638	0.00843811	66.7	668	5.5957e-05
71.6638	0.00843811	66.8	669	-6.10389e-05
71.7638	0.00843506	66.9	670	-3.56076e-05
71.8638	0.00844727	67	671	0.000259405
71.9638	0.00844421	67.1	672	-0.00020853
72.0638	0.00843811	67.2	673	-3.56107e-05
72.1638	0.00844421	67.3	674	0.000172947
72.2638	0.00844727	67.4	675	-3.562e-05
72.3638	0.00844727	67.5	676	-1.52613e-05
72.4638	0.00844421	67.6	677	-4.57652e-05
72.5638	0.00842896	67.7	678	-0.000244137
72.6638	0.00844116	67.8	679	0.000391646
72.7638	0.00844116	67.9	680	-0.000193287
72.8638	0.00844116	68	681	4.06864e-05
72.9638	0.00844727	68.1	682	0.00011188
73.0638	0.00844116	68.2	683	-0.000183089
73.1638	0.00845337	68.3	684	0.000315331
73.2638	0.00844421	68.4	685	-0.000330589
73.3638	0.00846252	68.5	686	0.00048318
73.4638	0.00844421	68.6	687	-0.000579817
73.5638	0.00844727	68.7	688	0.000330589
73.6638	0.00844116	68.8	689	-0.000208523
73.7638	0.00843811	68.9	690	2.54127e-05
73.8638	0.00845032	69	691	0.000239058
73.9638	0.00844727	69.1	692	-0.000208533
74.0638	0.00844421	69.2	693	2.03525e-05
74.1638	0.00844116	69.3	694	-3.05195e-05
74.2638	0.00845032	69.4	695	0.000193262
74.3638	0.00844116	69.5	696	-0.000284805
74.4638	0.00844727	69.6	697	0.000249194
74.5638	0.00844116	69.7	698	-0.000213605
74.6638	0.00845947	69.8	699	0.000427238
74.7638	0.00845032	69.9	700	-0.000401816
74.8638	0.00845337	70	701	0.000223813
74.9638	0.00845337	70.1	702	-6.61302e-05
75.0638	0.00844421	70.2	703	-0.000157664
75.1638	0.00843811	70.3	704	-5.09123e-06
75.2638	0.00846252	70.4	705	0.000488274
75.3638	0.00844727	70.5	706	-0.000584927
75.4638	0.00846252	70.6	707	0.000539137
75.5638	0.00845642	70.7	708	-0.000340771
75.6638	0.00845642	70.8	709	0.000122059
75.7638	0.00844421	70.9	710	-0.000244137
75.8638	0.00846252	71	711	0.000478101
75.9638	0.00845337	71.1	712	-0.000422153
76.0638	0.00845947	71.2	713	0.000279751
76.1638	0.00845947	71.3	714	-0.000101719
76.2638	0.00845642	71.4	715	-3.56014e-05
76.3638	0.00844421	71.5	716	-0.000188196
76.4638	0.00845947	71.6	717	0.000411999
76.5638	0.00844727	71.7	718	-0.000442518
76.6638	0.00846252	71.8	719	0.000473019
76.7638	0.00847473	71.9	720	5.09744e-06
76.8638	0.00845947	72	721	-0.000371294
76.9638	0.00845337	72.1	722	0.00010681
77.0638	0.00845947	72.2	723	0.000132254
77.1638	0.00846863	72.3	724	7.62878e-05
77.2638	0.00846863	72.4	725	-8.64641e-05
77.3638	0.00846863	72.5	726	3.05164e-05
77.4638	0.00845337	72.6	727	-0.000279745
77.5638	0.00846252	72.7	728	0.000345856
77.6638	0.00846252	72.8	729	-0.000157679
77.7638	0.00846863	72.9	730	0.000142418
77.8638	0.00847168	73	731	-1.52551e-05
77.9638	0.00845642	73.1	732	-0.000295012
78.0638	0.00846558	73.2	733	0.000356026
78.1638	0.00846252	73.3	734	-0.000213611
78.2638	0.00846863	73.4	735	0.000178016
78.3638	0.00846252	73.5	736	-0.00019329
78.4638	0.00848083	73.6	737	0.000427248
78.5638	0.00847778	73.7	738	-0.000289915
78.6638	0.00846863	73.8	739	-7.1209e-05
78.7638	0.00846558	73.9	740	4.06833e-05
78.8638	0.00847168	74	741	0.000117005
78.9638	0.00846558	74.1	742	-0.000193306
79.0638	0.00848999	74.2	743	0.000539177
79.1638	0.00846558	74.3	744	-0.000752786
79.2638	0.00846863	74.4	745	0.000422178
79.3638	0.00846558	74.5	746	-0.000172947
79.4638	0.00848694	74.6	747	0.00043744
79.5638	0.00847778	74.7	748	-0.000427279
79.6638	0.00848999	74.8	749	0.000401838
79.7638	0.00848083	74.9	750	-0.000340793
79.8638	0.00849304	75	751	0.000371306
79.9638	0.00847778	75.1	752	-0.000452692
80.0638	0.00847168	75.2	753	0.00010682
80.1638	0.00847473	75.3	754	7.62878e-05
80.2638	0.00848389	75.4	755	0.000111902
80.3638	0.00848083	75.5	756	-0.000152591
80.4638	0.00848083	75.6	757	6.61302e-05
80.5638	0.00848389	75.7	758	4.57839e-05
80.6638	0.00847473	75.8	759	-0.000203448
80.7638	0.00848999	75.9	760	0.000396734
80.8638	0.00848083	76	761	-0.000376391
80.9638	0.00849304	76.1	762	0.000381476
81.0638	0.00849304	76.2	763	-0.000172947
81.1638	0.00848999	76.3	764	-1.52458e-05
81.2638	0.00848389	76.4	765	-7.63002e-05
81.3638	0.00848083	76.5	766	5.08503e-06
81.4638	0.0085022	76.6	767	0.00040692
81.5638	0.0085083	76.7	768	-0.000147534
81.6638	0.00848694	76.8	769	-0.000391625
81.7638	0.00848694	76.9	770	0.000269559
81.8638	0.00848999	77	771	-1.52551e-05
81.9638	0.00849915	77.1	772	0.000132245
82.0638	0.00849304	77.2	773	-0.000208545
82.1638	0.00849609	77.3	774	0.000157673
82.2638	0.00849915	77.4	775	1.24176e-08
82.3638	0.0085144	77.5	776	0.000254307
82.4638	0.0085022	77.6	777	-0.000391637
82.5638	0.00849304	77.7	778	2.54065e-05
82.6638	0.0085022	77.8	779	0.000233986
82.7638	0.0085083	77.9	780	-2.54593e-05
82.8638	0.0085083	78	781	-4.06864e-05
82.9638	0.00850525	78.1	782	-3.55921e-05
83.0638	0.00851135	78.2	783	0.000147491
83.1638	0.00850525	78.3	784	-0.00019325
83.2638	0.00848999	78.4	785	-0.000188196
83.3638	0.00849915	78.5	786	0.000325519
83.4638	0.0085083	78.6	787	1.01638e-05
83.5638	0.0085083	78.7	788	-7.63002e-05
83.6638	0.00850525	78.8	789	-2.54189e-05
83.7638	0.00851135	78.9	790	0.000147491
83.8638	0.00851746	79	791	3.05412e-05
83.9638	0.0085022	79.1	792	-0.000330626
84.0638	0.00850525	79.2	793	0.000254316
84.1638	0.00850525	79.3	794	-8.64548e-05
84.2638	0.00850525	79.4	795	1.01794e-05
84.3638	0.00849915	79.5	796	-0.000111902
84.4638	0.00852051	79.6	797	0.000462862
84.5638	0.00851746	79.7	798	-0.000325522
84.6638	0.00852051	79.8	799	0.000162758
84.7638	0.00851135	79.9	800	-0.000213627
84.8638	0.00849609	80	801	-0.000162749
84.9638	0.00852356	80.1	802	0.000651039
85.0638	0.00852356	80.2	803	-0.000371309
85.1638	0.0085144	80.3	804	-7.62909e-05
85.2638	0.00850525	80.4	805	-6.10265e-05
85.3638	0.00851135	80.5	806	0.000188183
85.4638	0.00851746	80.6	807	1.01949e-05
85.5638	0.00852356	80.7	808	6.10017e-05
85.6638	0.00853577	80.8	809	0.000172956
85.7638	0.0085083	80.9	810	-0.000625629
85.8638	0.00850525	81	811	0.000305195
85.9638	0.00852051	81.1	812	0.000223797
86.0638	0.0085144	81.2	813	-0.000300091
86.1638	0.00852661	81.3	814	0.000345862
86.2638	0.00853271	81.4	815	-5.08441e-05
86.3638	0.00854187	81.5	816	0.000137302
86.4638	0.00852356	81.6	817	-0.000422147
86.5638	0.0085144	81.7	818	7.62909e-05
86.6638	0.00852051	81.8	819	0.000157682
86.7638	0.00852356	81.9	820	-4.57901e-05
86.8638	0.00853271	82	821	0.0001526
86.9638	0.00852661	82.1	822	-0.000208561
87.0638	0.00852966	82.2	823	0.000157698
87.1638	0.00852051	82.3	824	-0.000223794
87.2638	0.00852051	82.4	825	0.00011699
87.3638	0.00851746	82.5	826	-8.64641e-05
87.4638	0.00852966	82.6	827	0.000259386
87.5638	0.00852661	82.7	828	-0.000208536
87.6638	0.00852356	82.8	829	2.03494e-05
87.7638	0.00852966	82.9	830	0.000137327
87.8638	0.00852966	83	831	-8.13821e-05
87.9638	0.00853271	83.1	832	7.63002e-05
88.0638	0.00853271	83.2	833	-3.56138e-05
88.1638	0.00853577	83.3	834	6.6124e-05
88.2638	0.00851746	83.4	835	-0.000371291
88.3638	0.00852661	83.5	836	0.000391625
88.4638	0.00853882	83.6	837	5.59601e-05
88.5638	0.00852966	83.7	838	-0.000279748
88.6638	0.00853271	83.8	839	0.000203454
88.7638	0.00853271	83.9	840	-6.61302e-05
88.8638	0.00852661	84	841	-0.000101738
88.9638	0.00854187	84.1	842	0.000350969
89.0638	0.00852966	84.2	843	-0.000422153
89.1638	0.00853577	84.3	844	0.000305179
89.2638	0.00853271	84.4	845	-0.000167846
89.3638	0.00852966	84.5	846	-1.24176e-08
89.4638	0.00853577	84.6	847	0.000137345
89.5638	0.00853577	84.7	848	-8.13759e-05
89.6638	0.00852966	84.8	849	-9.15553e-05
89.7638	0.00853271	84.9	850	0.000127163
89.8638	0.00853882	85	851	5.59229e-05
89.9638	0.00853577	85.1	852	-0.000116962
90.0638	0.00854797	85.2	853	0.000279742
90.1638	0.00853882	85.3	854	-0.000320456
90.2638	0.00854492	85.4	855	0.000259411
90.3638	0.00853577	85.5	856	-0.000269565
90.4638	0.00854187	85.6	857	0.000239046
90.5638	0.00853882	85.7	858	-0.000157667
90.6638	0.00854797	85.8	859	0.000223797
90.7638	0.00856323	85.9	860	0.000162749
90.8638	0.00853271	86	861	-0.000706992
90.9638	0.00853882	86.1	862	0.000518781
91.0638	0.00854187	86.2	863	-0.000116977
91.1638	0.00854797	86.3	864	9.66559e-05
91.2638	0.00853882	86.4	865	-0.000228913
91.3638	0.00853882	86.5	866	0.00012716
91.4638	0.00854797	86.6	867	0.000137336
91.5638	0.00853882	86.7	868	-0.000274685
91.6638	0.00854187	86.8	869	0.000193287
91.7638	0.00855103	86.9	870	0.000101747
91.8638	0.00855103	87	871	-9.66403e-05
91.9638	0.00855103	87.1	872	3.05257e-05
92.0638	0.00855713	87.2	873	0.000111889
92.1638	0.00854797	87.3	874	-0.000239033
92.2638	0.00854492	87.4	875	7.11842e-05
92.3638	0.00853882	87.5	876	-0.000106813
92.4638	0.00854797	87.6	877	0.000228891
92.5638	0.00854187	87.7	878	-0.000239077
92.6638	0.00854797	87.8	879	0.000213652
92.7638	0.00855408	87.9	880	2.03122e-05
92.8638	0.00855103	88	881	-0.000106789
92.9638	0.00855408	88.1	882	0.00011188
93.0638	0.00855408	88.2	883	-4.57777e-05
93.1638	0.00854797	88.3	884	-0.000101719
93.2638	0.00854797	88.4	885	7.11966e-05
93.3638	0.00855713	88.5	886	0.000147491
93.4638	0.00855103	88.6	887	-0.000218678
93.5638	0.00854187	88.7	888	-6.61395e-05
93.6638	0.00855408	88.8	889	0.00031027
93.7638	0.00855103	88.9	890	-0.000228876
93.8638	0.00855408	89	891	0.000132226
93.9638	0.00857239	89.1	892	0.000289921
94.0638	0.00855408	89.2	893	-0.000539143
94.1638	0.00854492	89.3	894	0.00010681
94.2638	0.00856323	89.4	895	0.000381473
94.3638	0.00856628	89.5	896	-0.000188196
94.4638	0.00854492	89.6	897	-0.000366209
94.5638	0.00855408	89.7	898	0.000427238
94.6638	0.00856018	89.8	899	-6.61178e-05
94.7638	0.00855103	89.9	900	-0.00020853
94.8638	0.00855713	90	901	0.000239046
94.9638	0.00855408	90.1	902	-0.000157667
95.0638	0.00856018	90.2	903	0.000167843
95.1638	0.00856323	90.3	904	-2.54282e-05
95.2638	0.00856323	90.4	905	-1.52675e-05
95.3638	0.00856934	90.5	906	0.000122053
95.4638	0.00855103	90.6	907	-0.00040688
95.5638	0.00856018	90.7	908	0.000401807
95.6638	0.00855408	90.8	909	-0.000279751
95.7638	0.00856323	90.9	910	0.000269581
95.8638	0.00856628	91	911	-7.12152e-05
95.9638	0.00854797	91.1	912	-0.000340771
96.0638	0.00857544	91.2	913	0.000727323
96.1638	0.00857544	91.3	914	-0.000381464
96.2638	0.00855408	91.4	915	-0.0003001
96.3638	0.00857239	91.5	916	0.000584921
96.4638	0.00857544	91.6	917	-0.00022887
96.5638	0.00857544	91.7	918	2.54251e-05
96.6638	0.00856323	91.8	919	-0.000213618
96.7638	0.00857849	91.9	920	0.00042215
96.8638	0.00857849	92	921	-0.000218712
96.9638	0.00856628	92.1	922	-0.000172931
97.0638	0.00856934	92.2	923	0.000198356
97.1638	0.00857239	92.3	924	-2.03432e-05
97.2638	0.00857239	92.4	925	-2.54251e-05
97.3638	0.00857239	92.5	926	1.01763e-05
97.4638	0.00858154	92.6	927	0.000167865
97.5638	0.00856018	92.7	928	-0.000498466
97.6638	0.00856323	92.8	929	0.000335702
97.7638	0.00856323	92.9	930	-0.000106823
97.8638	0.00857849	93	931	0.000289915
97.9638	0.00856934	93.1	932	-0.000345884
98.0638	0.00857239	93.2	933	0.00021363
98.1638	0.00857849	93.3	934	4.57932e-05
98.2638	0.00856323	93.4	935	-0.000340796
98.3638	0.00858765	93.5	936	0.000645944
98.4638	0.00858154	93.6	937	-0.00044756
98.5638	0.00858765	93.7	938	0.000264468
98.6638	0.00857849	93.8	939	-0.000259377
98.7638	0.00858459	93.9	940	0.000239021
98.8638	0.00858765	94	941	-4.57683e-05
98.9638	0.00857544	94.1	942	-0.000239043
99.0638	0.00858154	94.2	943	0.00026449
99.1638	0.0085907	94.3	944	5.59446e-05
99.2638	0.00857849	94.4	945	-0.000310255
99.3638	0.00857544	94.5	946	0.000116968
99.4638	0.00857544	94.6	947	-5.07882e-06
99.5638	0.00858459	94.7	948	0.000157664
99.6638	0.00858459	94.8	949	-0.000106817
99.7638	0.0085907	94.9	950	0.000142418
99.8638	0.00857544	95	951	-0.000350954
99.9638	0.00857544	95.1	952	0.000198366
100.064	0.00857849	95.2	953	5.09123e-06
100.164	0.0085907	95.3	954	0.000188177
100.264	0.00857544	95.4	955	-0.00041198
100.364	0.00858154	95.5	956	0.000330617
100.464	0.0085907	95.6	957	4.57714e-05
100.564	0.00857849	95.7	958	-0.000310255
100.664	0.00859375	95.8	959	0.000452667
100.764	0.0085968	95.9	960	-0.000162758
100.864	0.0085907	96	961	-9.66372e-05
100.964	0.00859375	96.1	962	0.000137336
101.064	0.00859375	96.2	963	-5.59601e-05
101.164	0.00857239	96.3	964	-0.000381483
101.264	0.00858459	96.4	965	0.000473035
101.364	0.0085907	96.5	966	-0.000101728
101.464	0.00858765	96.6	967	-8.64734e-05
101.564	0.00859375	96.7	968	0.000167868
101.664	0.00858765	96.8	969	-0.000193306
101.764	0.00858765	96.9	970	9.15708e-05
101.864	0.00858765	97	971	-2.03432e-05
101.964	0.00858459	97.1	972	-5.59508e-05
102.064	0.00860291	97.2	973	0.000371291
102.164	0.0085907	97.3	974	-0.000447579
102.264	0.00858765	97.4	975	0.000147491
102.364	0.00858765	97.5	976	-5.07571e-06
102.464	0.00858459	97.6	977	-6.6124e-05
102.564	0.00860291	97.7	978	0.000371291
102.664	0.0085907	97.8	979	-0.000447579
102.764	0.00858765	97.9	980	0.000147491
102.864	0.00859985	98	981	0.000218715
102.964	0.00858765	98.1	982	-0.000376391
103.064	0.0085968	98.2	983	0.000350975
103.164	0.00859985	98.3	984	-9.15739e-05
103.264	0.0085968	98.4	985	-6.10172e-05
103.364	0.0085968	98.5	986	4.57777e-05
103.464	0.00860596	98.6	987	0.000157673
103.564	0.00860901	98.7	988	-5.08565e-05
103.664	0.00859985	98.8	989	-0.000172959
103.764	0.00860596	98.9	990	0.000228894
103.864	0.00861206	99	991	1.01794e-05
103.964	0.0085968	99.1	992	-0.000330601
104.064	0.00860901	99.2	993	0.000422163
104.164	0.00860291	99.3	994	-0.000305195
104.264	0.00860901	99.4	995	0.000223822
104.364	0.00861511	99.5	996	2.03122e-05
104.464	0.0085968	99.6	997	-0.000386533
104.564	0.00859985	99.7	998	0.000289899
104.664	0.00861206	99.8	999	0.000127175
104.764	0.00860596	99.9	1000	-0.00024415
104.864	0.00860596	100	1001	0.000111902
104.964	0.00860596	100.1	1002	-2.03463e-05
105.064	0.00861206	100.2	1003	0.000111908
105.164	0.00860596	100.3	1004	-0.000183111
105.264	0.0085968	100.4	1005	-7.62816e-05
105.364	0.00859985	100.5	1006	0.000142399
105.464	0.00860901	100.6	1007	0.000101738
105.564	0.00860901	100.7	1008	-9.66528e-05
105.664	0.00861511	100.8	1009	0.000142399
105.764	0.00861816	100.9	1010	-1.5252e-05
105.864	0.00861206	101	1011	-0.000127135
105.964	0.00862427	101.1	1012	0.00030517
106.064	0.00862122	101.2	1013	-0.000218721
106.164	0.00860291	101.3	1014	-0.000259398
106.264	0.00860901	101.4	1015	0.000315368
106.364	0.00861511	101.5	1016	-2.03774e-05
106.464	0.00861816	101.6	1017	5.09434e-06
106.564	0.00861816	101.7	1018	-1.5252e-05
106.664	0.00861511	101.8	1019	-4.57777e-05
106.764	0.00862122	101.9	1020	0.0001475
106.864	0.00862427	102	1021	-2.54282e-05
106.964	0.00860901	102.1	1022	-0.000295012
107.064	0.00859985	102.2	1023	2.03277e-05
107.164	0.00861511	102.3	1024	0.000335696
107.264	0.00861511	102.4	1025	-0.000208545
107.364	0.00862732	102.5	1026	0.000274672
107.464	0.00862122	102.6	1027	-0.00025432
107.564	0.00862427	102.7	1028	0.000167856
107.664	0.00862122	102.8	1029	-0.000111914
107.764	0.00862427	102.9	1030	0.000101738
107.864	0.00862122	103	1031	-0.000101741
107.964	0.00861511	103.1	1032	-6.6124e-05
108.064	0.00861206	103.2	1033	5.10055e-06
108.164	0.00861816	103.3	1034	0.000127144
108.264	0.00861511	103.4	1035	-0.000137321
108.364	0.00861206	103.5	1036	6.20882e-09
108.464	0.00862427	103.6	1037	0.000249225
108.564	0.00861206	103.7	1038	-0.000376385
108.664	0.00863342	103.8	1039	0.000574745
108.764	0.00861511	103.9	1040	-0.000625604
108.864	0.00863037	104	1041	0.000564562
108.964	0.00862122	104.1	1042	-0.000406898
109.064	0.00864563	104.2	1043	0.000605255
109.164	0.00862732	104.3	1044	-0.000651026
109.264	0.00862732	104.4	1045	0.000295006
109.364	0.00864563	104.5	1046	0.000274647
109.464	0.00862732	104.6	1047	-0.000549301
109.564	0.00862122	104.7	1048	0.000162752
109.664	0.00863342	104.8	1049	0.000233967
109.764	0.00863037	104.9	1050	-0.000218706
109.864	0.00861816	105	1051	-0.000147509
109.964	0.00862732	105.1	1052	0.000300113
110.064	0.00863037	105.2	1053	-9.15739e-05
110.164	0.00863342	105.3	1054	5.08658e-05
110.264	0.00863342	105.4	1055	-2.54251e-05
110.364	0.00863647	105.5	1056	6.61302e-05
110.464	0.00862122	105.6	1057	-0.000315355
110.564	0.00863342	105.7	1058	0.000411983
110.664	0.00862427	105.8	1059	-0.000361105
110.764	0.00863647	105.9	1060	0.000371275
110.864	0.00863647	106	1061	-0.000172925
110.964	0.00862732	106.1	1062	-0.000127147
111.064	0.00864258	106.2	1063	0.000386561
111.164	0.00861511	106.3	1064	-0.00071209
111.264	0.00863037	106.4	1065	0.000651039
111.364	0.00862427	106.5	1066	-0.000381464
111.464	0.00863037	106.6	1067	0.000233942
111.564	0.00864258	106.7	1068	0.000132267
111.664	0.00864868	106.8	1069	-1.01856e-05
111.764	0.00863037	106.9	1070	-0.000366203
111.864	0.00863342	107	1071	0.000289909
111.964	0.00864258	107.1	1072	7.12307e-05
112.064	0.00864563	107.2	1073	-4.07113e-05
112.164	0.00863647	107.3	1074	-0.000172925
112.264	0.00863342	107.4	1075	6.10265e-05
112.364	0.00864563	107.5	1076	0.000228888
112.464	0.00864563	107.6	1077	-0.0001526
112.564	0.00865479	107.7	1078	0.000208545
112.664	0.00863953	107.8	1079	-0.000386568
112.764	0.00863953	107.9	1080	0.000208536
112.864	0.00864258	108	1081	5.08813e-06
112.964	0.00864563	108.1	1082	2.0337e-05
113.064	0.00863342	108.2	1083	-0.000249225
113.164	0.00864258	108.3	1084	0.000320456
113.264	0.00865173	108.4	1085	2.03339e-05
113.364	0.00864868	108.5	1086	-0.000132245
113.464	0.00864868	108.6	1087	6.61302e-05
113.564	0.00863953	108.7	1088	-0.000178007
113.664	0.00863953	108.8	1089	0.000106795
113.764	0.00865479	108.9	1090	0.000249225
113.864	0.00865479	109	1091	-0.000178022
113.964	0.00865173	109.1	1092	-5.09434e-06
114.064	0.00865173	109.2	1093	3.56107e-05
114.164	0.00863342	109.3	1094	-0.000345872
114.264	0.00865173	109.4	1095	0.000549332
114.364	0.00865479	109.5	1096	-0.000218712
114.464	0.00864563	109.6	1097	-0.00014244
114.564	0.00864868	109.7	1098	0.000172941
114.664	0.00863342	109.8	1099	-0.000345859
114.764	0.00865173	109.9	1100	0.000523894
114.864	0.00863953	110	1101	-0.000488284
114.964	0.00865479	110.1	1102	0.000483186
115.064	0.00865173	110.2	1103	-0.000274666
115.164	0.00864868	110.3	1104	3.05195e-05
115.264	0.00864258	110.4	1105	-8.64423e-05
115.364	0.00865479	110.5	1106	0.000284824
115.464	0.00864258	110.6	1107	-0.000386558
115.564	0.00866089	110.7	1108	0.000518791
115.664	0.00866699	110.8	1109	-0.000142409
115.764	0.00864868	110.9	1110	-0.000345875
115.864	0.00865784	111	1111	0.000401841
115.964	0.00866089	111.1	1112	-0.00011192
116.064	0.0086792	111.2	1113	0.000330611
116.164	0.00866394	111.3	1114	-0.000483189
116.264	0.00865479	111.4	1115	7.12214e-05
116.364	0.00866699	111.5	1116	0.000279723
116.464	0.00864868	111.6	1117	-0.000508624
116.564	0.00866699	111.7	1118	0.000590021
116.664	0.00866394	111.8	1119	-0.00033062
116.764	0.00866089	111.9	1120	4.06957e-05
116.864	0.00866699	112	1121	0.000137327
116.964	0.00867004	112.1	1122	-2.54282e-05
117.064	0.00865479	112.2	1123	-0.000295012
117.164	0.00865784	112.3	1124	0.000244143
117.264	0.00866394	112.4	1125	2.54282e-05
117.364	0.00866089	112.5	1126	-0.000116977
117.464	0.00867004	112.6	1127	0.000223797
117.564	0.00867004	112.7	1128	-0.000116996
117.664	0.00865784	112.8	1129	-0.000193274
117.764	0.00865479	112.9	1130	8.64734e-05
117.864	0.0086731	113	1131	0.000330604
117.964	0.00867004	113.1	1132	-0.000279739
118.064	0.00866394	113.2	1133	-1.52768e-05
118.164	0.00867615	113.3	1134	0.000284842
118.264	0.00866089	113.4	1135	-0.000442518
118.364	0.00867615	113.5	1136	0.000498447
118.464	0.00866089	113.6	1137	-0.000508633
118.564	0.0086853	113.7	1138	0.000676482
118.664	0.00866089	113.8	1139	-0.000783311
118.764	0.00865173	113.9	1140	0.000198378
118.864	0.00866394	114	1141	0.000249219
118.964	0.00867615	114.1	1142	5.08689e-05
119.064	0.00866394	114.2	1143	-0.000325529
119.164	0.0086731	114.3	1144	0.000350975
119.264	0.00867615	114.4	1145	-9.15739e-05
119.364	0.00868225	114.5	1146	0.00010682
119.464	0.0086731	114.6	1147	-0.000228876
119.564	0.0086731	114.7	1148	0.000127163
119.664	0.00867004	114.8	1149	-8.64641e-05
119.764	0.0086731	114.9	1150	9.15491e-05
119.864	0.00867004	115	1151	-0.000101719
119.964	0.00867004	115.1	1152	4.57683e-05
120.064	0.00867004	115.2	1153	-1.01763e-05
120.164	0.0086792	115.3	1154	0.000167834
120.264	0.00867615	115.4	1155	-0.000162749
120.364	0.0086792	115.5	1156	0.000122062
120.464	0.00868225	115.6	1157	1.01856e-05
120.564	0.00867004	115.7	1158	-0.000249228
120.664	0.0086853	115.8	1159	0.000432323
120.764	0.0086731	115.9	1160	-0.000442503
120.864	0.00868225	116	1161	0.000361127
120.964	0.00868225	116.1	1162	-0.0001475
121.064	0.00867004	116.2	1163	-0.000193274
121.164	0.0086853	116.3	1164	0.00042215
121.264	0.00867615	116.4	1165	-0.000386574
121.364	0.0086731	116.5	1166	0.000101747
121.464	0.0086792	116.6	1167	0.000116971
121.564	0.00869141	116.7	1168	0.000142424
121.664	0.00869141	116.8	1169	-0.000122084
121.764	0.0086792	116.9	1170	-0.000183108
121.864	0.00867615	117	1171	8.64703e-05
121.964	0.00868835	117.1	1172	0.000218718
122.064	0.00867615	117.2	1173	-0.000376401
122.164	0.00868225	117.3	1174	0.000295012
122.264	0.00869141	117.4	1175	5.59353e-05
122.364	0.00867615	117.5	1176	-0.000366215
122.464	0.00869751	117.6	1177	0.000600182
122.564	0.0086792	117.7	1178	-0.00063579
122.664	0.00868225	117.8	1179	0.000340796
122.764	0.00869141	117.9	1180	7.11904e-05
122.864	0.0086853	118	1181	-0.000208526
122.964	0.0086792	118.1	1182	-1.01949e-05
123.064	0.0086853	118.2	1183	0.000162789
123.164	0.00868835	118.3	1184	-3.56169e-05
123.264	0.00868835	118.4	1185	-1.52458e-05
123.364	0.00869141	118.5	1186	6.61084e-05
123.464	0.00868225	118.6	1187	-0.000203445
123.564	0.00868225	118.7	1188	0.00011698
123.664	0.00870361	118.8	1189	0.000361136
123.764	0.00869141	118.9	1190	-0.000473038
123.864	0.00868225	119	1191	4.57839e-05
123.964	0.0086853	119.1	1192	0.000122072
124.064	0.00869751	119.2	1193	0.000157661
124.164	0.00869446	119.3	1194	-0.000188189
124.264	0.0086792	119.4	1195	-0.000203441
124.364	0.00869446	119.5	1196	0.000447594
124.464	0.00869446	119.6	1197	-0.000228879
124.564	0.00868835	119.7	1198	-6.10172e-05
124.664	0.0086792	119.8	1199	-9.66559e-05
124.764	0.00868835	119.9	1200	0.000254341