File: data/20200212/OCP_p28_1.txt
Time (s)	WE(1).Potential (V)	Corrected time (s)	Index	dWE(1).Potential/dt (V/s)	Cutoffs	OCP value (V)
4.4598	0.00218201	0	1	0	dWE(1).Potential/dt < 1E-06 V/s	0.000862959
4.5598	0.00217896	0.1	2	-3.05171e-05	dWE(1).Potential/dt < 1E-06 V/s
4.6598	0.00217896	0.2	3	1.52597e-05
4.7598	0.0021759	0.3	4	-6.61209e-05	dWE(1).Potential/dt < 1E-06 V/s
4.8598	0.00217285	0.4	5	-2.03471e-05	dWE(1).Potential/dt < 1E-06 V/s
4.9598	0.00217285	0.5	6	2.54306e-05
5.0598	0.0021759	0.6	7	4.57792e-05
5.1598	0.00216675	0.7	8	-0.000203452	dWE(1).Potential/dt < 1E-06 V/s
5.2598	0.00216675	0.8	9	0.000116985
5.3598	0.0021698	0.9	10	2.54298e-05
5.4598	0.00216064	1	11	-0.000203445	dWE(1).Potential/dt < 1E-06 V/s
5.5598	0.00215759	1.1	12	6.10296e-05
5.6598	0.00215149	1.2	13	-0.00010681	dWE(1).Potential/dt < 1E-06 V/s
5.7598	0.00215759	1.3	14	0.00017293
5.8598	0.00215149	1.4	15	-0.000203449	dWE(1).Potential/dt < 1E-06 V/s
5.9598	0.00215149	1.5	16	9.15522e-05
6.0598	0.00214844	1.6	17	-7.62925e-05	dWE(1).Potential/dt < 1E-06 V/s
6.1598	0.00214844	1.7	18	3.56014e-05
6.2598	0.00214539	1.8	19	-6.61209e-05	dWE(1).Potential/dt < 1E-06 V/s
6.3598	0.00213928	1.9	20	-7.62948e-05	dWE(1).Potential/dt < 1E-06 V/s
6.4598	0.00213623	2	21	5.09046e-06
6.5598	0.00213928	2.1	22	7.12043e-05
6.6598	0.00213623	2.2	23	-0.000101721	dWE(1).Potential/dt < 1E-06 V/s
6.7598	0.00213318	2.3	24	-1.01732e-05	dWE(1).Potential/dt < 1E-06 V/s
6.8598	0.00213318	2.4	25	2.5429e-05
6.9598	0.00212708	2.5	26	-0.000122075	dWE(1).Potential/dt < 1E-06 V/s
7.0598	0.00212402	2.6	27	1.52605e-05
7.1598	0.00211792	2.7	28	-9.66349e-05	dWE(1).Potential/dt < 1E-06 V/s
7.2598	0.00212402	2.8	29	0.000172927
7.3598	0.00212402	2.9	30	-9.15483e-05	dWE(1).Potential/dt < 1E-06 V/s
7.4598	0.00210571	3	31	-0.000315347	dWE(1).Potential/dt < 1E-06 V/s
7.5598	0.00211792	3.1	32	0.000437419
7.6598	0.00211182	3.2	33	-0.000315355	dWE(1).Potential/dt < 1E-06 V/s
7.7598	0.00210876	3.3	34	5.59508e-05
7.8598	0.00210571	3.4	35	-4.06872e-05	dWE(1).Potential/dt < 1E-06 V/s
7.9598	0.00210876	3.5	36	8.13775e-05
8.0598	0.00209656	3.6	37	-0.000269571	dWE(1).Potential/dt < 1E-06 V/s
8.1598	0.00209961	3.7	38	0.000208539
8.2598	0.00209961	3.8	39	-7.62932e-05	dWE(1).Potential/dt < 1E-06 V/s
8.3598	0.00209045	3.9	40	-0.000157675	dWE(1).Potential/dt < 1E-06 V/s
8.4598	0.00209351	4	41	0.00016276
8.5598	0.00209351	4.1	42	-6.61193e-05	dWE(1).Potential/dt < 1E-06 V/s
8.6598	0.0020874	4.2	43	-0.000101722	dWE(1).Potential/dt < 1E-06 V/s
8.7598	0.00208435	4.3	44	1.52559e-05
8.8598	0.0020874	4.4	45	7.12098e-05
8.9598	0.0020752	4.5	46	-0.000269575	dWE(1).Potential/dt < 1E-06 V/s
9.0598	0.00207825	4.6	47	0.000208537
9.1598	0.0020813	4.7	48	-2.0344e-05	dWE(1).Potential/dt < 1E-06 V/s
9.2598	0.00207825	4.8	49	-8.13821e-05	dWE(1).Potential/dt < 1E-06 V/s
9.3598	0.0020752	4.9	50	-1.01693e-05	dWE(1).Potential/dt < 1E-06 V/s
9.4598	0.00207825	5	51	8.13775e-05
9.5598	0.00207214	5.1	52	-0.000157669	dWE(1).Potential/dt < 1E-06 V/s
9.6598	0.00207214	5.2	53	8.13759e-05
9.7598	0.00206604	5.3	54	-0.000132247	dWE(1).Potential/dt < 1E-06 V/s
9.8598	0.00206299	5.4	55	1.52605e-05
9.9598	0.00205994	5.5	56	-4.06872e-05	dWE(1).Potential/dt < 1E-06 V/s
10.0598	0.00205688	5.6	57	-3.05179e-05	dWE(1).Potential/dt < 1E-06 V/s
10.1598	0.00205994	5.7	58	8.13767e-05
10.2598	0.00205383	5.8	59	-0.00015767	dWE(1).Potential/dt < 1E-06 V/s
10.3598	0.00205078	5.9	60	2.54275e-05
10.4598	0.00205383	6	61	7.12121e-05
10.5598	0.00205078	6.1	62	-0.00010173	dWE(1).Potential/dt < 1E-06 V/s
10.6598	0.00205078	6.2	63	4.57761e-05
10.7598	0.00204468	6.3	64	-0.00012207	dWE(1).Potential/dt < 1E-06 V/s
10.8598	0.00204468	6.4	65	7.12074e-05
10.9598	0.00204468	6.5	66	-2.03448e-05	dWE(1).Potential/dt < 1E-06 V/s
11.0598	0.00203857	6.6	67	-0.000111895	dWE(1).Potential/dt < 1E-06 V/s
11.1598	0.00203552	6.7	68	1.52551e-05
11.2598	0.00203247	6.8	69	-4.06895e-05	dWE(1).Potential/dt < 1E-06 V/s
11.3598	0.00202942	6.9	70	-3.05148e-05	dWE(1).Potential/dt < 1E-06 V/s
11.4598	0.00202637	7	71	-3.05179e-05	dWE(1).Potential/dt < 1E-06 V/s
11.5598	0.00202332	7.1	72	-3.05187e-05	dWE(1).Potential/dt < 1E-06 V/s
11.6598	0.00202332	7.2	73	2.54344e-05
11.7598	0.00202026	7.3	74	-6.61247e-05	dWE(1).Potential/dt < 1E-06 V/s
11.8598	0.00202026	7.4	75	3.56029e-05
11.9598	0.00201721	7.5	76	-6.61224e-05	dWE(1).Potential/dt < 1E-06 V/s
12.0598	0.00202026	7.6	77	9.15538e-05
12.1598	0.00201111	7.7	78	-0.000213622	dWE(1).Potential/dt < 1E-06 V/s
12.2598	0.00201721	7.8	79	0.000228877
12.3598	0.00200195	7.9	80	-0.000381465	dWE(1).Potential/dt < 1E-06 V/s
12.4598	0.00200195	8	81	0.000198365
12.5598	0.0019989	8.1	82	-0.00010681	dWE(1).Potential/dt < 1E-06 V/s
12.6598	0.002005	8.2	83	0.000147498
12.7598	0.00200195	8.3	84	-0.000137329	dWE(1).Potential/dt < 1E-06 V/s
12.8598	0.0019989	8.4	85	3.10441e-09	dWE(1).Potential/dt < 1E-06 V/s
12.9598	0.00199585	8.5	86	-3.05179e-05	dWE(1).Potential/dt < 1E-06 V/s
13.0598	0.0019928	8.6	87	-3.05187e-05	dWE(1).Potential/dt < 1E-06 V/s
13.1598	0.00199585	8.7	88	8.13821e-05
13.2598	0.0019928	8.8	89	-0.000101726	dWE(1).Potential/dt < 1E-06 V/s
13.3598	0.00198059	8.9	90	-0.000178018	dWE(1).Potential/dt < 1E-06 V/s
13.4598	0.00198364	9	91	0.000188189
13.5598	0.00197754	9.1	92	-0.000188188	dWE(1).Potential/dt < 1E-06 V/s
13.6598	0.00198975	9.2	93	0.000305172
13.7598	0.00198364	9.3	94	-0.000274657	dWE(1).Potential/dt < 1E-06 V/s
13.8598	0.00198059	9.4	95	5.59493e-05
13.9598	0.00198059	9.5	96	1.52566e-05
14.0598	0.00196838	9.6	97	-0.00023397	dWE(1).Potential/dt < 1E-06 V/s
14.1598	0.00197754	9.7	98	0.000310267
14.2598	0.00197144	9.8	99	-0.000259402	dWE(1).Potential/dt < 1E-06 V/s
14.3598	0.00196838	9.9	100	4.57808e-05
14.4598	0.00197449	10	101	0.000127152
14.5598	0.00197144	10.1	102	-0.000137329	dWE(1).Potential/dt < 1E-06 V/s
14.6598	0.00196228	10.2	103	-0.000111892	dWE(1).Potential/dt < 1E-06 V/s
14.7598	0.00195923	10.3	104	4.06849e-05
14.8598	0.00195923	10.4	105	5.0858e-06
14.9598	0.00195618	10.5	106	-6.61224e-05	dWE(1).Potential/dt < 1E-06 V/s
15.0598	0.001953125	10.6	107	-2.03417e-05	dWE(1).Potential/dt < 1E-06 V/s
15.1598	0.00195923	10.7	108	0.000137325
15.2598	0.00195007	10.8	109	-0.000249224	dWE(1).Potential/dt < 1E-06 V/s
15.3598	0.00194702	10.9	110	7.12028e-05
15.4598	0.00195007	11	111	6.10374e-05
15.5598	0.00195007	11.1	112	-4.57784e-05	dWE(1).Potential/dt < 1E-06 V/s
15.6598	0.00194092	11.2	113	-0.000157677	dWE(1).Potential/dt < 1E-06 V/s
15.7598	0.00194702	11.3	114	0.000218714
15.8598	0.00194092	11.4	115	-0.000213628	dWE(1).Potential/dt < 1E-06 V/s
15.9598	0.00194397	11.5	116	0.000147507
16.0598	0.00194092	11.6	117	-0.0001119	dWE(1).Potential/dt < 1E-06 V/s
16.1598	0.00193787	11.7	118	-1.01693e-05	dWE(1).Potential/dt < 1E-06 V/s
16.2598	0.00193176	11.8	119	-8.64691e-05	dWE(1).Potential/dt < 1E-06 V/s
16.3598	0.00193481	11.9	120	0.000116984
16.4598	0.00193481	12	121	-5.59508e-05	dWE(1).Potential/dt < 1E-06 V/s
16.5598	0.00193176	12.1	122	-4.57788e-05	dWE(1).Potential/dt < 1E-06 V/s
16.6598	0.00192871	12.2	123	-2.0344e-05	dWE(1).Potential/dt < 1E-06 V/s
16.7598	0.00193176	12.3	124	8.13814e-05
16.8598	0.00192566	12.4	125	-0.000157677	dWE(1).Potential/dt < 1E-06 V/s
16.9598	0.00191956	12.5	126	-3.05121e-05	dWE(1).Potential/dt < 1E-06 V/s
17.0598	0.00192261	12.6	127	0.000106806
17.1598	0.00191956	12.7	128	-0.000111895	dWE(1).Potential/dt < 1E-06 V/s
17.2598	0.00191956	12.8	129	4.57738e-05
17.3598	0.00191345	12.9	130	-0.000122072	dWE(1).Potential/dt < 1E-06 V/s
17.4598	0.00191956	13	131	0.00018311
17.5598	0.00191345	13.1	132	-0.000203455	dWE(1).Potential/dt < 1E-06 V/s
17.6598	0.0019043	13.2	133	-7.62897e-05	dWE(1).Potential/dt < 1E-06 V/s
17.7598	0.0019043	13.3	134	8.64633e-05
17.8598	0.0019043	13.4	135	-3.05183e-05	dWE(1).Potential/dt < 1E-06 V/s
17.9598	0.00189514	13.5	136	-0.00016785	dWE(1).Potential/dt < 1E-06 V/s
18.0598	0.00190735	13.6	137	0.000330613
18.1598	0.0019043	13.7	138	-0.000228883	dWE(1).Potential/dt < 1E-06 V/s
18.2598	0.00189819	13.8	139	-3.56068e-05	dWE(1).Potential/dt < 1E-06 V/s
18.3598	0.00189819	13.9	140	6.10389e-05
18.4598	0.00189209	14	141	-0.000132242	dWE(1).Potential/dt < 1E-06 V/s
18.5598	0.00189819	14.1	142	0.000183106
18.6598	0.00189819	14.2	143	-9.1551e-05	dWE(1).Potential/dt < 1E-06 V/s
18.7598	0.00188904	14.3	144	-0.0001475	dWE(1).Potential/dt < 1E-06 V/s
18.8598	0.00188293	14.4	145	-5.09007e-06	dWE(1).Potential/dt < 1E-06 V/s
18.9598	0.00188599	14.5	146	9.66415e-05
19.0598	0.00187988	14.6	147	-0.00016785	dWE(1).Potential/dt < 1E-06 V/s
19.1598	0.00187988	14.7	148	8.13833e-05
19.2598	0.00188293	14.8	149	3.56064e-05
19.3598	0.00187988	14.9	150	-9.15545e-05	dWE(1).Potential/dt < 1E-06 V/s
19.4598	0.00187988	15	151	4.57784e-05
19.5598	0.00187683	15.1	152	-6.61197e-05	dWE(1).Potential/dt < 1E-06 V/s
19.6598	0.00187683	15.2	153	3.56022e-05
19.7598	0.00187378	15.3	154	-6.61201e-05	dWE(1).Potential/dt < 1E-06 V/s
19.8598	0.00187073	15.4	155	-2.03494e-05	dWE(1).Potential/dt < 1E-06 V/s
19.9598	0.00186157	15.5	156	-0.000142415	dWE(1).Potential/dt < 1E-06 V/s
20.0598	0.00187683	15.6	157	0.000376384
20.1598	0.00186462	15.7	158	-0.000432334	dWE(1).Potential/dt < 1E-06 V/s
20.2598	0.00186157	15.8	159	0.000137333
20.3598	0.00186462	15.9	160	5.08596e-05
20.4598	0.00186462	16	161	-4.57738e-05	dWE(1).Potential/dt < 1E-06 V/s
20.5598	0.00185852	16.1	162	-0.000101722	dWE(1).Potential/dt < 1E-06 V/s
20.6598	0.00186157	16.2	163	0.000127151
20.7598	0.00185852	16.3	164	-0.000111895	dWE(1).Potential/dt < 1E-06 V/s
20.8598	0.00185547	16.4	165	-1.0177e-05	dWE(1).Potential/dt < 1E-06 V/s
20.9598	0.00185242	16.5	166	-3.05164e-05	dWE(1).Potential/dt < 1E-06 V/s
21.0598	0.00184937	16.6	167	-3.05171e-05	dWE(1).Potential/dt < 1E-06 V/s
21.1598	0.00184937	16.7	168	2.54333e-05
21.2598	0.00185547	16.8	169	0.000101727
21.3598	0.00185242	16.9	170	-0.000127159	dWE(1).Potential/dt < 1E-06 V/s
21.4598	0.00184631	17	171	-5.59469e-05	dWE(1).Potential/dt < 1E-06 V/s
21.5598	0.00184937	17.1	172	0.000116982
21.6598	0.00184937	17.2	173	-5.59465e-05	dWE(1).Potential/dt < 1E-06 V/s
21.7598	0.00184326	17.3	174	-0.000101722	dWE(1).Potential/dt < 1E-06 V/s
21.8598	0.00184326	17.4	175	7.12036e-05
21.9598	0.00184021	17.5	176	-7.62963e-05	dWE(1).Potential/dt < 1E-06 V/s
22.0598	0.00184326	17.6	177	9.15545e-05
22.1598	0.00184021	17.7	178	-0.000101729	dWE(1).Potential/dt < 1E-06 V/s
22.2598	0.00183105	17.8	179	-0.00012207	dWE(1).Potential/dt < 1E-06 V/s
22.3598	0.00183411	17.9	180	0.000152587
22.4598	0.001828	18	181	-0.000178014	dWE(1).Potential/dt < 1E-06 V/s
22.5598	0.00183411	18.1	182	0.000193271
22.6598	0.00183105	18.2	183	-0.000147496	dWE(1).Potential/dt < 1E-06 V/s
22.7598	0.00183105	18.3	184	5.59469e-05
22.8598	0.001828	18.4	185	-6.61201e-05	dWE(1).Potential/dt < 1E-06 V/s
22.9598	0.001828	18.5	186	3.56014e-05
23.0598	0.00182495	18.6	187	-6.6124e-05	dWE(1).Potential/dt < 1E-06 V/s
23.1598	0.001828	18.7	188	9.15545e-05
23.2598	0.00182495	18.8	189	-0.000101729	dWE(1).Potential/dt < 1E-06 V/s
23.3598	0.00182495	18.9	190	4.57765e-05
23.4598	0.0018158	19	191	-0.00017802	dWE(1).Potential/dt < 1E-06 V/s
23.5598	0.0018219	19.1	192	0.000218711
23.6598	0.00182495	19.2	193	-4.57757e-05	dWE(1).Potential/dt < 1E-06 V/s
23.7598	0.00181274	19.3	194	-0.000239055	dWE(1).Potential/dt < 1E-06 V/s
23.8598	0.0018158	19.4	195	0.000208534
23.9598	0.00180664	19.5	196	-0.000244138	dWE(1).Potential/dt < 1E-06 V/s
24.0598	0.00179749	19.6	197	-5.08604e-05	dWE(1).Potential/dt < 1E-06 V/s
24.1598	0.00178528	19.7	198	-0.000147506	dWE(1).Potential/dt < 1E-06 V/s
24.2598	0.00179138	19.8	199	0.000223798
24.3598	0.00179138	19.9	200	-0.000111896	dWE(1).Potential/dt < 1E-06 V/s
24.4598	0.00178528	20	201	-9.15522e-05	dWE(1).Potential/dt < 1E-06 V/s
24.5598	0.00178223	20.1	202	1.52593e-05
24.6598	0.00177917	20.2	203	-4.06946e-05	dWE(1).Potential/dt < 1E-06 V/s
24.7598	0.00177612	20.3	204	-3.05164e-05	dWE(1).Potential/dt < 1E-06 V/s
24.8598	0.00177307	20.4	205	-3.05171e-05	dWE(1).Potential/dt < 1E-06 V/s
24.9598	0.00177307	20.5	206	2.54333e-05
25.0598	0.00177002	20.6	207	-6.61197e-05	dWE(1).Potential/dt < 1E-06 V/s
25.1598	0.00176697	20.7	208	-2.03455e-05	dWE(1).Potential/dt < 1E-06 V/s
25.2598	0.00176392	20.8	209	-3.05218e-05	dWE(1).Potential/dt < 1E-06 V/s
25.3598	0.00176086	20.9	210	-3.05164e-05	dWE(1).Potential/dt < 1E-06 V/s
25.4598	0.00176697	21	211	0.000137332
25.5598	0.00175781	21.1	212	-0.000249233	dWE(1).Potential/dt < 1E-06 V/s
25.6598	0.00175781	21.2	213	0.000127161
25.7598	0.00175781	21.3	214	-3.05171e-05	dWE(1).Potential/dt < 1E-06 V/s
25.8598	0.00175781	21.4	215	7.76103e-10	dWE(1).Potential/dt < 1E-06 V/s
25.9598	0.00175171	21.5	216	-0.000111895	dWE(1).Potential/dt < 1E-06 V/s
26.0598	0.00174561	21.6	217	-4.0695e-05	dWE(1).Potential/dt < 1E-06 V/s
26.1598	0.00174866	21.7	218	0.000106814
26.2598	0.00174255	21.8	219	-0.00016785	dWE(1).Potential/dt < 1E-06 V/s
26.3598	0.0017395	21.9	220	2.54356e-05
26.4598	0.0017395	22	221	1.5257e-05
26.5598	0.0017395	22.1	222	-1.01724e-05	dWE(1).Potential/dt < 1E-06 V/s
26.6598	0.00173645	22.2	223	-5.59477e-05	dWE(1).Potential/dt < 1E-06 V/s
26.7598	0.0017334	22.3	224	-2.03494e-05	dWE(1).Potential/dt < 1E-06 V/s
26.8598	0.0017334	22.4	225	2.54344e-05
26.9598	0.00172729	22.5	226	-0.000122071	dWE(1).Potential/dt < 1E-06 V/s
27.0598	0.00173035	22.6	227	0.000127157
27.1598	0.00172729	22.7	228	-0.000111901	dWE(1).Potential/dt < 1E-06 V/s
27.2598	0.00173035	22.8	229	0.000101728
27.3598	0.00172119	22.9	230	-0.000213624	dWE(1).Potential/dt < 1E-06 V/s
27.4598	0.00172119	23	231	0.000116986
27.5598	0.00172119	23.1	232	-3.05168e-05	dWE(1).Potential/dt < 1E-06 V/s
27.6598	0.00171204	23.2	233	-0.000167849	dWE(1).Potential/dt < 1E-06 V/s
27.7598	0.00171509	23.3	234	0.000162762
27.8598	0.00171509	23.4	235	-6.61232e-05	dWE(1).Potential/dt < 1E-06 V/s
27.9598	0.00171204	23.5	236	-4.57784e-05	dWE(1).Potential/dt < 1E-06 V/s
28.0598	0.00171814	23.6	237	0.000147503
28.1598	0.00170593	23.7	238	-0.000305173	dWE(1).Potential/dt < 1E-06 V/s
28.2598	0.00170593	23.8	239	0.00016276
28.3598	0.00170288	23.9	240	-9.66399e-05	dWE(1).Potential/dt < 1E-06 V/s
28.4598	0.00170288	24	241	3.56053e-05
28.5598	0.00169983	24.1	242	-6.61201e-05	dWE(1).Potential/dt < 1E-06 V/s
28.6598	0.00169678	24.2	243	-2.0349e-05	dWE(1).Potential/dt < 1E-06 V/s
28.7598	0.00169678	24.3	244	2.54317e-05
28.8598	0.00169983	24.4	245	4.57773e-05
28.9598	0.00169678	24.5	246	-9.15561e-05	dWE(1).Potential/dt < 1E-06 V/s
29.0598	0.00169373	24.6	247	-1.01708e-05	dWE(1).Potential/dt < 1E-06 V/s
29.1598	0.00168762	24.7	248	-8.64676e-05	dWE(1).Potential/dt < 1E-06 V/s
29.2598	0.00168762	24.8	249	6.10366e-05
29.3598	0.00169067	24.9	250	3.5606e-05
29.4598	0.00168762	25	251	-9.15549e-05	dWE(1).Potential/dt < 1E-06 V/s
29.5598	0.00168762	25.1	252	4.5778e-05
29.6598	0.00167847	25.2	253	-0.000178019	dWE(1).Potential/dt < 1E-06 V/s
29.7598	0.00168457	25.3	254	0.000218709
29.8598	0.00168152	25.4	255	-0.000157677	dWE(1).Potential/dt < 1E-06 V/s
29.9598	0.00168457	25.5	256	0.0001119
30.0598	0.00167847	25.6	257	-0.000157677	dWE(1).Potential/dt < 1E-06 V/s
30.1598	0.00167542	25.7	258	2.54337e-05
30.2598	0.00167542	25.8	259	1.52593e-05
30.3598	0.00167847	25.9	260	4.57761e-05
30.4598	0.00167542	26	261	-9.15514e-05	dWE(1).Potential/dt < 1E-06 V/s
30.5598	0.00167236	26.1	262	-1.01739e-05	dWE(1).Potential/dt < 1E-06 V/s
30.6598	0.00166016	26.2	263	-0.000198361	dWE(1).Potential/dt < 1E-06 V/s
30.7598	0.0016571	26.3	264	7.62917e-05
30.8598	0.00166016	26.4	265	5.08662e-05
30.9598	0.00165405	26.5	266	-0.000157675	dWE(1).Potential/dt < 1E-06 V/s
31.0598	0.0016571	26.6	267	0.000137327
31.1598	0.00165405	26.7	268	-0.000111895	dWE(1).Potential/dt < 1E-06 V/s
31.2598	0.00166016	26.8	269	0.000157673
31.3598	0.001651	26.9	270	-0.000249228	dWE(1).Potential/dt < 1E-06 V/s
31.4598	0.00164795	27	271	7.12086e-05
31.5598	0.00164795	27.1	272	5.0858e-06
31.6598	0.001651	27.2	273	4.57753e-05
31.7598	0.00164795	27.3	274	-9.15522e-05	dWE(1).Potential/dt < 1E-06 V/s
31.8598	0.0016449	27.4	275	-1.01716e-05	dWE(1).Potential/dt < 1E-06 V/s
31.9598	0.0016449	27.5	276	2.54321e-05
32.0598	0.00164185	27.6	277	-6.61224e-05	dWE(1).Potential/dt < 1E-06 V/s
32.1598	0.00163879	27.7	278	-2.03424e-05	dWE(1).Potential/dt < 1E-06 V/s
32.2598	0.00163879	27.8	279	2.5429e-05
32.3598	0.00164185	27.9	280	4.57749e-05
32.4598	0.00163574	28	281	-0.0001475	dWE(1).Potential/dt < 1E-06 V/s
32.5598	0.00162964	28.1	282	-3.05168e-05	dWE(1).Potential/dt < 1E-06 V/s
32.6598	0.00162659	28.2	283	-5.08774e-06	dWE(1).Potential/dt < 1E-06 V/s
32.7598	0.00163574	28.3	284	0.000183107
32.8598	0.00163269	28.4	285	-0.000172934	dWE(1).Potential/dt < 1E-06 V/s
32.9598	0.00162354	28.5	286	-0.000101725	dWE(1).Potential/dt < 1E-06 V/s
33.0598	0.00162354	28.6	287	9.6638e-05
33.1598	0.00162964	28.7	288	8.13806e-05
33.2598	0.00162048	28.8	289	-0.000239056	dWE(1).Potential/dt < 1E-06 V/s
33.3598	0.00162048	28.9	290	0.000127156
33.4598	0.00161743	29	291	-8.64664e-05	dWE(1).Potential/dt < 1E-06 V/s
33.5598	0.00162048	29.1	292	9.15514e-05
33.6598	0.00161133	29.2	293	-0.000213623	dWE(1).Potential/dt < 1E-06 V/s
33.7598	0.00161438	29.3	294	0.000172936
33.8598	0.00161133	29.4	295	-0.000122072	dWE(1).Potential/dt < 1E-06 V/s
33.9598	0.00161133	29.5	296	4.5778e-05
34.0598	0.00161133	29.6	297	-1.01724e-05	dWE(1).Potential/dt < 1E-06 V/s
34.1598	0.00160828	29.7	298	-5.59473e-05	dWE(1).Potential/dt < 1E-06 V/s
34.2598	0.00160522	29.8	299	-2.0349e-05	dWE(1).Potential/dt < 1E-06 V/s
34.3598	0.00160522	29.9	300	2.54317e-05
34.4598	0.00159912	30	301	-0.000122069	dWE(1).Potential/dt < 1E-06 V/s
34.5598	0.00159912	30.1	302	7.12082e-05
34.6598	0.00159302	30.2	303	-0.000132242	dWE(1).Potential/dt < 1E-06 V/s
34.7598	0.00160217	30.3	304	0.000239053
34.8598	0.00159302	30.4	305	-0.000295002	dWE(1).Potential/dt < 1E-06 V/s
34.9598	0.00159607	30.5	306	0.000193276
35.0598	0.00159607	30.6	307	-6.61193e-05	dWE(1).Potential/dt < 1E-06 V/s
35.1598	0.00158386	30.7	308	-0.000213621	dWE(1).Potential/dt < 1E-06 V/s
35.2598	0.00158386	30.8	309	0.000142415
35.3598	0.00158691	30.9	310	1.52586e-05
35.4598	0.00158997	31	311	2.0344e-05
35.5598	0.00157776	31.1	312	-0.000249226	dWE(1).Potential/dt < 1E-06 V/s
35.6598	0.00158691	31.2	313	0.000320433
35.7598	0.00158386	31.3	314	-0.000203448	dWE(1).Potential/dt < 1E-06 V/s
35.8598	0.00157471	31.4	315	-0.000101727	dWE(1).Potential/dt < 1E-06 V/s
35.9598	0.00158081	31.5	316	0.000208537
36.0598	0.00157166	31.6	317	-0.000269571	dWE(1).Potential/dt < 1E-06 V/s
36.1598	0.00157471	31.7	318	0.000183104
36.2598	0.00157471	31.8	319	-6.6122e-05	dWE(1).Potential/dt < 1E-06 V/s
36.3598	0.00157166	31.9	320	-4.57761e-05	dWE(1).Potential/dt < 1E-06 V/s
36.4598	0.00156555	32	321	-7.62948e-05	dWE(1).Potential/dt < 1E-06 V/s
36.5598	0.00156555	32.1	322	6.10366e-05
36.6598	0.00156555	32.2	323	-2.03448e-05	dWE(1).Potential/dt < 1E-06 V/s
36.7598	0.0015686	32.3	324	5.59512e-05
36.8598	0.00156555	32.4	325	-9.15549e-05	dWE(1).Potential/dt < 1E-06 V/s
36.9598	0.00156555	32.5	326	4.5778e-05
37.0598	0.0015564	32.6	327	-0.000178019	dWE(1).Potential/dt < 1E-06 V/s
37.1598	0.00155945	32.7	328	0.000162758
37.2598	0.00155334	32.8	329	-0.000178017	dWE(1).Potential/dt < 1E-06 V/s
37.3598	0.0015625	32.9	330	0.000249227
37.4598	0.0015564	33	331	-0.000239056	dWE(1).Potential/dt < 1E-06 V/s
37.5598	0.00155334	33.1	332	4.57784e-05
37.6598	0.00154724	33.2	333	-9.66392e-05	dWE(1).Potential/dt < 1E-06 V/s
37.7598	0.00154114	33.3	334	-5.08642e-05	dWE(1).Potential/dt < 1E-06 V/s
37.8598	0.00154419	33.4	335	0.000106811
37.9598	0.00153809	33.5	336	-0.000167845	dWE(1).Potential/dt < 1E-06 V/s
38.0598	0.00154419	33.6	337	0.000193276
38.1598	0.00154419	33.7	338	-9.1553e-05	dWE(1).Potential/dt < 1E-06 V/s
38.2598	0.00153198	33.8	339	-0.00020345	dWE(1).Potential/dt < 1E-06 V/s
38.3598	0.00153809	33.9	340	0.000254313
38.4598	0.00153809	34	341	-0.000111896	dWE(1).Potential/dt < 1E-06 V/s
38.5598	0.00153503	34.1	342	-3.56049e-05	dWE(1).Potential/dt < 1E-06 V/s
38.6598	0.00153503	34.2	343	3.56053e-05
38.7598	0.00152893	34.3	344	-0.000122071	dWE(1).Potential/dt < 1E-06 V/s
38.8598	0.00152893	34.4	345	7.12063e-05
38.9598	0.00152588	34.5	346	-7.62936e-05	dWE(1).Potential/dt < 1E-06 V/s
39.0598	0.00153198	34.6	347	0.000147502
39.1598	0.00153503	34.7	348	-2.54337e-05	dWE(1).Potential/dt < 1E-06 V/s
39.2598	0.00152588	34.8	349	-0.000183103	dWE(1).Potential/dt < 1E-06 V/s
39.3598	0.00152283	34.9	350	6.10354e-05
39.4598	0.00152283	35	351	5.08697e-06
39.5598	0.00152588	35.1	352	4.57761e-05
39.6598	0.00151978	35.2	353	-0.000147502	dWE(1).Potential/dt < 1E-06 V/s
39.7598	0.00151978	35.3	354	8.13814e-05
39.8598	0.00151978	35.4	355	-2.03448e-05	dWE(1).Potential/dt < 1E-06 V/s
39.9598	0.00151367	35.5	356	-0.000111898	dWE(1).Potential/dt < 1E-06 V/s
40.0598	0.00151672	35.6	357	0.000127157
40.1598	0.00151672	35.7	358	-5.59504e-05	dWE(1).Potential/dt < 1E-06 V/s
40.2598	0.00151672	35.8	359	1.01724e-05
40.3598	0.00151062	35.9	360	-0.000111899	dWE(1).Potential/dt < 1E-06 V/s
40.4598	0.00151672	36	361	0.000183107
40.5598	0.00151062	36.1	362	-0.000203453	dWE(1).Potential/dt < 1E-06 V/s
40.6598	0.00150146	36.2	363	-7.62925e-05	dWE(1).Potential/dt < 1E-06 V/s
40.7598	0.00150757	36.3	364	0.000198364
40.8598	0.00150757	36.4	365	-0.000101724	dWE(1).Potential/dt < 1E-06 V/s
40.9598	0.00149841	36.5	366	-0.000147503	dWE(1).Potential/dt < 1E-06 V/s
41.0598	0.00150757	36.6	367	0.00027466
41.1598	0.00150146	36.7	368	-0.000249228	dWE(1).Potential/dt < 1E-06 V/s
41.2598	0.00150452	36.8	369	0.000157672
41.3598	0.00149841	36.9	370	-0.000167845	dWE(1).Potential/dt < 1E-06 V/s
41.4598	0.00150146	37	371	0.000137329
41.5598	0.00149231	37.1	372	-0.000223797	dWE(1).Potential/dt < 1E-06 V/s
41.6598	0.00149231	37.2	373	0.000116986
41.7598	0.00149536	37.3	374	2.5431e-05
41.8598	0.00149536	37.4	375	-3.56037e-05	dWE(1).Potential/dt < 1E-06 V/s
41.9598	0.00148926	37.5	376	-0.000101726	dWE(1).Potential/dt < 1E-06 V/s
42.0598	0.00148315	37.6	377	-4.06895e-05	dWE(1).Potential/dt < 1E-06 V/s
42.1598	0.00148926	37.7	378	0.00016276
42.2598	0.00148315	37.8	379	-0.00020345	dWE(1).Potential/dt < 1E-06 V/s
42.3598	0.00148926	37.9	380	0.00020345
42.4598	0.00148621	38	381	-0.0001475	dWE(1).Potential/dt < 1E-06 V/s
42.5598	0.00148926	38.1	382	0.000111895
42.6598	0.00147705	38.2	383	-0.000269568	dWE(1).Potential/dt < 1E-06 V/s
42.7598	0.00148315	38.3	384	0.000264483
42.8598	0.00148315	38.4	385	-0.000111898	dWE(1).Potential/dt < 1E-06 V/s
42.9598	0.00147095	38.5	386	-0.00020345	dWE(1).Potential/dt < 1E-06 V/s
43.0598	0.0014801	38.6	387	0.00031026
43.1598	0.00148315	38.7	388	-9.1553e-05	dWE(1).Potential/dt < 1E-06 V/s
43.2598	0.00147705	38.8	389	-0.000116982	dWE(1).Potential/dt < 1E-06 V/s
43.3598	0.001474	38.9	390	2.54298e-05
43.4598	0.00147095	39	391	-4.06872e-05	dWE(1).Potential/dt < 1E-06 V/s
43.5598	0.001474	39.1	392	8.13767e-05
43.6598	0.00146484	39.2	393	-0.00021362	dWE(1).Potential/dt < 1E-06 V/s
43.7598	0.001474	39.3	394	0.000284829
43.8598	0.00147095	39.4	395	-0.000193276	dWE(1).Potential/dt < 1E-06 V/s
43.9598	0.00146484	39.5	396	-4.57792e-05	dWE(1).Potential/dt < 1E-06 V/s
44.0598	0.00147095	39.6	397	0.000172935
44.1598	0.00145874	39.7	398	-0.000315351	dWE(1).Potential/dt < 1E-06 V/s
44.2598	0.00145874	39.8	399	0.000162763
44.3598	0.00145874	39.9	400	-4.06899e-05	dWE(1).Potential/dt < 1E-06 V/s
44.4598	0.00146484	40	401	0.000111899
44.5598	0.00145874	40.1	402	-0.000183107	dWE(1).Potential/dt < 1E-06 V/s
44.6598	0.00145874	40.2	403	9.15541e-05
44.7598	0.00145874	40.3	404	-2.03448e-05	dWE(1).Potential/dt < 1E-06 V/s
44.8598	0.00144653	40.4	405	-0.000223794	dWE(1).Potential/dt < 1E-06 V/s
44.9598	0.00145569	40.5	406	0.000310261
45.0598	0.00145569	40.6	407	-0.000147503	dWE(1).Potential/dt < 1E-06 V/s
45.1598	0.00145264	40.7	408	-2.54337e-05	dWE(1).Potential/dt < 1E-06 V/s
45.2598	0.00145264	40.8	409	3.56041e-05
45.3598	0.00144653	40.9	410	-0.000122069	dWE(1).Potential/dt < 1E-06 V/s
45.4598	0.00144958	41	411	0.000127156
45.5598	0.00144653	41.1	412	-0.000111896	dWE(1).Potential/dt < 1E-06 V/s
45.6598	0.00144653	41.2	413	4.57769e-05
45.7598	0.00144653	41.3	414	-1.01716e-05	dWE(1).Potential/dt < 1E-06 V/s
45.8598	0.00144348	41.4	415	-5.595e-05	dWE(1).Potential/dt < 1E-06 V/s
45.9598	0.00144958	41.5	416	0.000147504
46.0598	0.00144653	41.6	417	-0.000137329	dWE(1).Potential/dt < 1E-06 V/s
46.1598	0.00144653	41.7	418	5.59496e-05
46.2598	0.00143738	41.8	419	-0.000178021	dWE(1).Potential/dt < 1E-06 V/s
46.3598	0.00143738	41.9	420	0.000106811
46.4598	0.00143738	42	421	-3.05187e-05	dWE(1).Potential/dt < 1E-06 V/s
46.5598	0.00143127	42.1	422	-0.000111896	dWE(1).Potential/dt < 1E-06 V/s
46.6598	0.00143433	42.2	423	0.000127156
46.7598	0.00142822	42.3	424	-0.000167847	dWE(1).Potential/dt < 1E-06 V/s
46.8598	0.00143433	42.4	425	0.00019328
46.9598	0.00142517	42.5	426	-0.0002594	dWE(1).Potential/dt < 1E-06 V/s
47.0598	0.00143433	42.6	427	0.000295002
47.1598	0.00142822	42.7	428	-0.000249227	dWE(1).Potential/dt < 1E-06 V/s
47.2598	0.00143738	42.8	429	0.000269573
47.3598	0.00142822	42.9	430	-0.000295004	dWE(1).Potential/dt < 1E-06 V/s
47.4598	0.00142822	43	431	0.00013733
47.5598	0.00142822	43.1	432	-3.05171e-05	dWE(1).Potential/dt < 1E-06 V/s
47.6598	0.00142212	43.2	433	-0.000111898	dWE(1).Potential/dt < 1E-06 V/s
47.7598	0.00141602	43.3	434	-4.06891e-05	dWE(1).Potential/dt < 1E-06 V/s
47.8598	0.00141907	43.4	435	0.000106811
47.9598	0.00141602	43.5	436	-0.000111896	dWE(1).Potential/dt < 1E-06 V/s
48.0598	0.00142212	43.6	437	0.000157672
48.1598	0.00141296	43.7	438	-0.000249227	dWE(1).Potential/dt < 1E-06 V/s
48.2598	0.00140991	43.8	439	7.12098e-05
48.3598	0.00141907	43.9	440	0.00017293
48.4598	0.00141296	44	441	-0.000228882	dWE(1).Potential/dt < 1E-06 V/s
48.5598	0.00141602	44.1	442	0.000157677
48.6598	0.00141602	44.2	443	-5.59493e-05	dWE(1).Potential/dt < 1E-06 V/s
48.7598	0.00140686	44.3	444	-0.000157676	dWE(1).Potential/dt < 1E-06 V/s
48.8598	0.00141296	44.4	445	0.00021871
48.9598	0.00140991	44.5	446	-0.000157672	dWE(1).Potential/dt < 1E-06 V/s
49.0598	0.00140381	44.6	447	-5.59516e-05	dWE(1).Potential/dt < 1E-06 V/s
49.1598	0.00139771	44.7	448	-5.08623e-05	dWE(1).Potential/dt < 1E-06 V/s
49.2598	0.00140076	44.8	449	0.000106815
49.3598	0.00139771	44.9	450	-0.0001119	dWE(1).Potential/dt < 1E-06 V/s
49.4598	0.00140381	45	451	0.000157677
49.5598	0.00140381	45.1	452	-8.13814e-05	dWE(1).Potential/dt < 1E-06 V/s
49.6598	0.00140076	45.2	453	-3.56026e-05	dWE(1).Potential/dt < 1E-06 V/s
49.7598	0.00140381	45.3	454	9.15522e-05
49.8598	0.00140076	45.4	455	-0.000101724	dWE(1).Potential/dt < 1E-06 V/s
49.9598	0.00139771	45.5	456	-1.01739e-05	dWE(1).Potential/dt < 1E-06 V/s
50.0598	0.0013916	45.6	457	-8.64656e-05	dWE(1).Potential/dt < 1E-06 V/s
50.1598	0.00139465	45.7	458	0.000116984
50.2598	0.00138855	45.8	459	-0.000167849	dWE(1).Potential/dt < 1E-06 V/s
50.3598	0.0013916	45.9	460	0.000137329
50.4598	0.00139465	46	461	1.16415e-09	dWE(1).Potential/dt < 1E-06 V/s
50.5598	0.0013916	46.1	462	-8.13837e-05	dWE(1).Potential/dt < 1E-06 V/s
50.6598	0.00138855	46.2	463	-1.01708e-05	dWE(1).Potential/dt < 1E-06 V/s
50.7598	0.00138855	46.3	464	2.5431e-05
50.8598	0.00138245	46.4	465	-0.000122071	dWE(1).Potential/dt < 1E-06 V/s
50.9598	0.00138245	46.5	466	7.1209e-05
51.0598	0.00137939	46.6	467	-7.62925e-05	dWE(1).Potential/dt < 1E-06 V/s
51.1598	0.00138245	46.7	468	9.15495e-05
51.2598	0.00138245	46.8	469	-4.57742e-05	dWE(1).Potential/dt < 1E-06 V/s
51.3598	0.00137939	46.9	470	-4.57749e-05	dWE(1).Potential/dt < 1E-06 V/s
51.4598	0.00137939	47	471	3.56018e-05
51.5598	0.00137939	47.1	472	-1.01728e-05	dWE(1).Potential/dt < 1E-06 V/s
51.6598	0.00137634	47.2	473	-5.59512e-05	dWE(1).Potential/dt < 1E-06 V/s
51.7598	0.00137024	47.3	474	-7.62913e-05	dWE(1).Potential/dt < 1E-06 V/s
51.8598	0.00137634	47.4	475	0.000172931
51.9598	0.00137939	47.5	476	-3.56022e-05	dWE(1).Potential/dt < 1E-06 V/s
52.0598	0.00138245	47.6	477	4.06872e-05
52.1598	0.00137329	47.7	478	-0.000193275	dWE(1).Potential/dt < 1E-06 V/s
52.2598	0.00137329	47.8	479	0.000116983
52.3598	0.00137329	47.9	480	-3.05175e-05	dWE(1).Potential/dt < 1E-06 V/s
52.4598	0.00136719	48	481	-0.000111899	dWE(1).Potential/dt < 1E-06 V/s
52.5598	0.00137024	48.1	482	0.00012716
52.6598	0.00137024	48.2	483	-5.59493e-05	dWE(1).Potential/dt < 1E-06 V/s
52.7598	0.00137634	48.3	484	0.000122069
52.8598	0.00136719	48.4	485	-0.000239054	dWE(1).Potential/dt < 1E-06 V/s
52.9598	0.00136414	48.5	486	7.12098e-05
53.0598	0.00136108	48.6	487	-5.08666e-05	dWE(1).Potential/dt < 1E-06 V/s
53.1598	0.00136414	48.7	488	8.13825e-05
53.2598	0.00136414	48.8	489	-4.5778e-05	dWE(1).Potential/dt < 1E-06 V/s
53.3598	0.00135498	48.9	490	-0.000157674	dWE(1).Potential/dt < 1E-06 V/s
53.4598	0.00135803	49	491	0.000162761
53.5598	0.00135803	49.1	492	-6.61212e-05	dWE(1).Potential/dt < 1E-06 V/s
53.6598	0.00135498	49.2	493	-4.57753e-05	dWE(1).Potential/dt < 1E-06 V/s
53.7598	0.00135498	49.3	494	3.56045e-05
53.8598	0.00135498	49.4	495	-1.01716e-05	dWE(1).Potential/dt < 1E-06 V/s
53.9598	0.00135193	49.5	496	-5.595e-05	dWE(1).Potential/dt < 1E-06 V/s
54.0598	0.00134888	49.6	497	-2.03424e-05	dWE(1).Potential/dt < 1E-06 V/s
54.1598	0.00135803	49.7	498	0.000193275
54.2598	0.00135193	49.8	499	-0.000228882	dWE(1).Potential/dt < 1E-06 V/s
54.3598	0.00134888	49.9	500	4.57788e-05
54.4598	0.00134888	50	501	1.52566e-05
54.5598	0.00134888	50.1	502	-1.01728e-05	dWE(1).Potential/dt < 1E-06 V/s
54.6598	0.00134888	50.2	503	-3.88051e-10	dWE(1).Potential/dt < 1E-06 V/s
54.7598	0.00134583	50.3	504	-5.59512e-05	dWE(1).Potential/dt < 1E-06 V/s
54.8598	0.00134583	50.4	505	3.56041e-05
54.9598	0.00134583	50.5	506	-1.01735e-05	dWE(1).Potential/dt < 1E-06 V/s
55.0598	0.00134583	50.6	507	-7.76103e-10	dWE(1).Potential/dt < 1E-06 V/s
55.1598	0.00134277	50.7	508	-5.59485e-05	dWE(1).Potential/dt < 1E-06 V/s
55.2598	0.00134277	50.8	509	3.56037e-05
55.3598	0.00133972	50.9	510	-6.61201e-05	dWE(1).Potential/dt < 1E-06 V/s
55.4598	0.00133667	51	511	-2.03463e-05	dWE(1).Potential/dt < 1E-06 V/s
55.5598	0.00133972	51.1	512	8.13837e-05
55.6598	0.00133667	51.2	513	-0.000101728	dWE(1).Potential/dt < 1E-06 V/s
55.7598	0.00133972	51.3	514	0.000101729
55.8598	0.00133667	51.4	515	-0.000101728	dWE(1).Potential/dt < 1E-06 V/s
55.9598	0.00133667	51.5	516	4.5778e-05
56.0598	0.00133057	51.6	517	-0.000122071	dWE(1).Potential/dt < 1E-06 V/s
56.1598	0.00133667	51.7	518	0.000183105
56.2598	0.00132751	51.8	519	-0.000259398	dWE(1).Potential/dt < 1E-06 V/s
56.3598	0.00133057	51.9	520	0.000183104
56.4598	0.00133057	52	521	-6.6122e-05	dWE(1).Potential/dt < 1E-06 V/s
56.5598	0.00132751	52.1	522	-4.57761e-05	dWE(1).Potential/dt < 1E-06 V/s
56.6598	0.00132751	52.2	523	3.56037e-05
56.7598	0.00132751	52.3	524	-1.01724e-05	dWE(1).Potential/dt < 1E-06 V/s
56.8598	0.00133362	52.4	525	0.000111899
56.9598	0.00132446	52.5	526	-0.000239055	dWE(1).Potential/dt < 1E-06 V/s
57.0598	0.00132751	52.6	527	0.000183106
57.1598	0.00133057	52.7	528	-1.01735e-05	dWE(1).Potential/dt < 1E-06 V/s
57.2598	0.00132446	52.8	529	-0.000137328	dWE(1).Potential/dt < 1E-06 V/s
57.3598	0.00131836	52.9	530	-3.05179e-05	dWE(1).Potential/dt < 1E-06 V/s
57.4598	0.00132141	53	531	0.00010681
57.5598	0.00131836	53.1	532	-0.000111895	dWE(1).Potential/dt < 1E-06 V/s
57.6598	0.00131531	53.2	533	-1.01766e-05	dWE(1).Potential/dt < 1E-06 V/s
57.7598	0.00131836	53.3	534	8.13825e-05
57.8598	0.00131836	53.4	535	-4.5778e-05	dWE(1).Potential/dt < 1E-06 V/s
57.9598	0.00131226	53.5	536	-0.000101726	dWE(1).Potential/dt < 1E-06 V/s
58.0598	0.00131226	53.6	537	7.12086e-05
58.1598	0.00131531	53.7	538	3.56026e-05
58.2598	0.0013092	53.8	539	-0.0001475	dWE(1).Potential/dt < 1E-06 V/s
58.3598	0.0013092	53.9	540	8.13806e-05
58.4598	0.00131226	54	541	3.56037e-05
58.5598	0.00132141	54.1	542	0.000132242
58.6598	0.0013092	54.2	543	-0.000320432	dWE(1).Potential/dt < 1E-06 V/s
58.7598	0.00131226	54.3	544	0.00022888
58.8598	0.00131226	54.4	545	-7.62936e-05	dWE(1).Potential/dt < 1E-06 V/s
58.9598	0.00130615	54.5	546	-0.000101726	dWE(1).Potential/dt < 1E-06 V/s
59.0598	0.0013031	54.6	547	1.52613e-05
59.1598	0.00130615	54.7	548	7.12043e-05
59.2598	0.0013031	54.8	549	-0.000101722	dWE(1).Potential/dt < 1E-06 V/s
59.3598	0.0013031	54.9	550	4.57742e-05
59.4598	0.00130615	55	551	4.57749e-05
59.5598	0.0013031	55.1	552	-9.15495e-05	dWE(1).Potential/dt < 1E-06 V/s
59.6598	0.0013031	55.2	553	4.57742e-05
59.7598	0.00130005	55.3	554	-6.61236e-05	dWE(1).Potential/dt < 1E-06 V/s
59.8598	0.0013031	55.4	555	9.15549e-05
59.9598	0.00129395	55.5	556	-0.000213624	dWE(1).Potential/dt < 1E-06 V/s
60.0598	0.0013031	55.6	557	0.000284832
60.1598	0.00129395	55.7	558	-0.000305176	dWE(1).Potential/dt < 1E-06 V/s
60.2598	0.001297	55.8	559	0.000193278
60.3598	0.00129395	55.9	560	-0.000122069	dWE(1).Potential/dt < 1E-06 V/s
60.4598	0.00129089	56	561	-1.01739e-05	dWE(1).Potential/dt < 1E-06 V/s
60.5598	0.001297	56.1	562	0.000137331
60.6598	0.00130005	56.2	563	-2.54337e-05	dWE(1).Potential/dt < 1E-06 V/s
60.7598	0.00129089	56.3	564	-0.000183106	dWE(1).Potential/dt < 1E-06 V/s
60.8598	0.00129089	56.4	565	0.000116985
60.9598	0.00129089	56.5	566	-3.05171e-05	dWE(1).Potential/dt < 1E-06 V/s
61.0598	0.00128479	56.6	567	-0.000111898	dWE(1).Potential/dt < 1E-06 V/s
61.1598	0.00128784	56.7	568	0.000127157
61.2598	0.00128784	56.8	569	-5.59504e-05	dWE(1).Potential/dt < 1E-06 V/s
61.3598	0.00129089	56.9	570	6.61201e-05
61.4598	0.00129089	57	571	-3.56018e-05	dWE(1).Potential/dt < 1E-06 V/s
61.5598	0.00129395	57.1	572	6.61236e-05
61.6598	0.00128479	57.2	573	-0.000203453	dWE(1).Potential/dt < 1E-06 V/s
61.7598	0.00128479	57.3	574	0.000116984
61.8598	0.00128479	57.4	575	-3.05187e-05	dWE(1).Potential/dt < 1E-06 V/s
61.9598	0.00128174	57.5	576	-5.59485e-05	dWE(1).Potential/dt < 1E-06 V/s
62.0598	0.00128479	57.6	577	9.15514e-05
62.1598	0.00128174	57.7	578	-0.000101725	dWE(1).Potential/dt < 1E-06 V/s
62.2598	0.00128479	57.8	579	0.000101724
62.3598	0.00128784	57.9	580	1.01739e-05
62.4598	0.00127869	58	581	-0.000193279	dWE(1).Potential/dt < 1E-06 V/s
62.5598	0.00127563	58.1	582	6.10351e-05
62.6598	0.00127869	58.2	583	6.10386e-05
62.7598	0.00127869	58.3	584	-4.57769e-05	dWE(1).Potential/dt < 1E-06 V/s
62.8598	0.00127869	58.4	585	1.01735e-05
62.9598	0.00128174	58.5	586	5.59485e-05
63.0598	0.00126648	58.6	587	-0.000315348	dWE(1).Potential/dt < 1E-06 V/s
63.1598	0.00127563	58.7	588	0.000356038
63.2598	0.00126953	58.8	589	-0.000269572	dWE(1).Potential/dt < 1E-06 V/s
63.3598	0.00127563	58.9	590	0.000213622
63.4598	0.00126648	59	591	-0.000259398	dWE(1).Potential/dt < 1E-06 V/s
63.5598	0.00126953	59.1	592	0.000183104
63.6598	0.00127258	59.2	593	-1.01712e-05	dWE(1).Potential/dt < 1E-06 V/s
63.7598	0.00127258	59.3	594	-2.54329e-05	dWE(1).Potential/dt < 1E-06 V/s
63.8598	0.00126953	59.4	595	-4.57784e-05	dWE(1).Potential/dt < 1E-06 V/s
63.9598	0.00126953	59.5	596	3.56041e-05
64.0598	0.00126953	59.6	597	-1.01735e-05	dWE(1).Potential/dt < 1E-06 V/s
64.1598	0.00126648	59.7	598	-5.59485e-05	dWE(1).Potential/dt < 1E-06 V/s
64.2598	0.00126648	59.8	599	3.56037e-05
64.3598	0.00126038	59.9	600	-0.000122071	dWE(1).Potential/dt < 1E-06 V/s
64.4598	0.00126648	60	601	0.000183108
64.5598	0.00126343	60.1	602	-0.000147501	dWE(1).Potential/dt < 1E-06 V/s
64.6598	0.00126038	60.2	603	-1.16415e-09	dWE(1).Potential/dt < 1E-06 V/s
64.7598	0.00125732	60.3	604	-3.05148e-05	dWE(1).Potential/dt < 1E-06 V/s
64.8598	0.00126343	60.4	605	0.000137328
64.9598	0.00126343	60.5	606	-8.13787e-05	dWE(1).Potential/dt < 1E-06 V/s
65.0598	0.00125732	60.6	607	-9.15526e-05	dWE(1).Potential/dt < 1E-06 V/s
65.1598	0.00126648	60.7	608	0.000239053
65.2598	0.00126038	60.8	609	-0.000239054	dWE(1).Potential/dt < 1E-06 V/s
65.3598	0.00125122	60.9	610	-6.61197e-05	dWE(1).Potential/dt < 1E-06 V/s
65.4598	0.00126038	61	611	0.000254312
65.5598	0.00125427	61.1	612	-0.000249226	dWE(1).Potential/dt < 1E-06 V/s
65.6598	0.00124817	61.2	613	-1.01716e-05	dWE(1).Potential/dt < 1E-06 V/s
65.7598	0.00125732	61.3	614	0.000218709
65.8598	0.00124817	61.4	615	-0.000295004	dWE(1).Potential/dt < 1E-06 V/s
65.9598	0.00124817	61.5	616	0.000137331
66.0598	0.00124512	61.6	617	-8.64676e-05	dWE(1).Potential/dt < 1E-06 V/s
66.1598	0.00124512	61.7	618	3.56053e-05
66.2598	0.00124817	61.8	619	4.57784e-05
66.3598	0.00124512	61.9	620	-9.15549e-05	dWE(1).Potential/dt < 1E-06 V/s
66.4598	0.00124207	62	621	-1.01697e-05	dWE(1).Potential/dt < 1E-06 V/s
66.5598	0.00124207	62.1	622	2.5429e-05
66.6598	0.00123901	62.2	623	-6.61236e-05	dWE(1).Potential/dt < 1E-06 V/s
66.7598	0.00124817	62.3	624	0.000203453
66.8598	0.00124207	62.4	625	-0.000228882	dWE(1).Potential/dt < 1E-06 V/s
66.9598	0.00124207	62.5	626	0.000101725
67.0598	0.00123596	62.6	627	-0.000132244	dWE(1).Potential/dt < 1E-06 V/s
67.1598	0.00123291	62.7	628	1.52609e-05
67.2598	0.00124207	62.8	629	0.000183106
67.3598	0.00123901	62.9	630	-0.000172936	dWE(1).Potential/dt < 1E-06 V/s
67.4598	0.00123596	63	631	1.01739e-05
67.5598	0.00123291	63.1	632	-3.05168e-05	dWE(1).Potential/dt < 1E-06 V/s
67.6598	0.00123901	63.2	633	0.000137328
67.7598	0.00123596	63.3	634	-0.000137328	dWE(1).Potential/dt < 1E-06 V/s
67.8598	0.00123596	63.4	635	5.59485e-05
67.9598	0.00123291	63.5	636	-6.61201e-05	dWE(1).Potential/dt < 1E-06 V/s
68.0598	0.00123596	63.6	637	9.15522e-05
68.1598	0.00122986	63.7	638	-0.000157675	dWE(1).Potential/dt < 1E-06 V/s
68.2598	0.00122986	63.8	639	8.13814e-05
68.3598	0.00122986	63.9	640	-2.03448e-05	dWE(1).Potential/dt < 1E-06 V/s
68.4598	0.00122681	64	641	-5.59473e-05	dWE(1).Potential/dt < 1E-06 V/s
68.5598	0.00122986	64.1	642	9.15495e-05
68.6598	0.00122986	64.2	643	-4.57742e-05	dWE(1).Potential/dt < 1E-06 V/s
68.7598	0.0012207	64.3	644	-0.000157673	dWE(1).Potential/dt < 1E-06 V/s
68.8598	0.00122681	64.4	645	0.000218709
68.9598	0.00122681	64.5	646	-0.000101727	dWE(1).Potential/dt < 1E-06 V/s
69.0598	0.0012207	64.6	647	-9.15538e-05	dWE(1).Potential/dt < 1E-06 V/s
69.1598	0.00122375	64.7	648	0.000127156
69.2598	0.0012207	64.8	649	-0.000111897	dWE(1).Potential/dt < 1E-06 V/s
69.3598	0.0012207	64.9	650	4.57761e-05
69.4598	0.0012207	65	651	-1.01724e-05	dWE(1).Potential/dt < 1E-06 V/s
69.5598	0.0012207	65.1	652	0	dWE(1).Potential/dt < 1E-06 V/s
69.6598	0.0012207	65.2	653	0	dWE(1).Potential/dt < 1E-06 V/s
69.7598	0.00122375	65.3	654	5.59477e-05
69.8598	0.00121765	65.4	655	-0.0001475	dWE(1).Potential/dt < 1E-06 V/s
69.9598	0.0012146	65.5	656	2.54298e-05
70.0598	0.0012146	65.6	657	1.52605e-05
70.1598	0.00121155	65.7	658	-6.61201e-05	dWE(1).Potential/dt < 1E-06 V/s
70.2598	0.0012146	65.8	659	9.15495e-05
70.3598	0.00121155	65.9	660	-0.000101722	dWE(1).Potential/dt < 1E-06 V/s
70.4598	0.0012146	66	661	0.000101722
70.5598	0.0012146	66.1	662	-4.57742e-05	dWE(1).Potential/dt < 1E-06 V/s
70.6598	0.00120239	66.2	663	-0.000213621	dWE(1).Potential/dt < 1E-06 V/s
70.7598	0.00121155	66.3	664	0.000310261
70.8598	0.0012085	66.4	665	-0.000203453	dWE(1).Potential/dt < 1E-06 V/s
70.9598	0.0012085	66.5	666	6.61216e-05
71.0598	0.00121155	66.6	667	4.57773e-05
71.1598	0.00120239	66.7	668	-0.000203451	dWE(1).Potential/dt < 1E-06 V/s
71.2598	0.00120544	66.8	669	0.000172934
71.3598	0.00119934	66.9	670	-0.00017802	dWE(1).Potential/dt < 1E-06 V/s
71.4598	0.00120239	67	671	0.000137332
71.5598	0.00120239	67.1	672	-5.59493e-05	dWE(1).Potential/dt < 1E-06 V/s
71.6598	0.00120239	67.2	673	1.01735e-05
71.7598	0.00119934	67.3	674	-5.595e-05	dWE(1).Potential/dt < 1E-06 V/s
71.8598	0.00120239	67.4	675	9.15561e-05
71.9598	0.00120544	67.5	676	1.01708e-05
72.0598	0.00119629	67.6	677	-0.000193277	dWE(1).Potential/dt < 1E-06 V/s
72.1598	0.00119934	67.7	678	0.00017293
72.2598	0.00119629	67.8	679	-0.000122067	dWE(1).Potential/dt < 1E-06 V/s
72.3598	0.00119629	67.9	680	4.57742e-05
72.4598	0.00119629	68	681	-1.01728e-05	dWE(1).Potential/dt < 1E-06 V/s
72.5598	0.00119324	68.1	682	-5.59512e-05	dWE(1).Potential/dt < 1E-06 V/s
72.6598	0.00119019	68.2	683	-2.03436e-05	dWE(1).Potential/dt < 1E-06 V/s
72.7598	0.00119019	68.3	684	2.5431e-05
72.8598	0.00119019	68.4	685	-1.01724e-05	dWE(1).Potential/dt < 1E-06 V/s
72.9598	0.00119019	68.5	686	0	dWE(1).Potential/dt < 1E-06 V/s
73.0598	0.00119324	68.6	687	5.59477e-05
73.1598	0.00118408	68.7	688	-0.000203451	dWE(1).Potential/dt < 1E-06 V/s
[...]
90.3598	0.00105286	85.9	860	-0.000178019	dWE(1).Potential/dt < 1E-06 V/s
90.4598	0.00106201	86	861	0.000274657
90.5598	0.0010498	86.1	862	-0.000361122	dWE(1).Potential/dt < 1E-06 V/s
90.6598	0.00105591	86.2	863	0.000284828
90.7598	0.00105591	86.3	864	-0.000111898	dWE(1).Potential/dt < 1E-06 V/s
90.8598	0.00105896	86.4	865	7.62948e-05
90.9598	0.00105286	86.5	866	-0.000147504	dWE(1).Potential/dt < 1E-06 V/s
91.0598	0.00105896	86.6	867	0.00019328
91.1598	0.0010498	86.7	868	-0.0002594	dWE(1).Potential/dt < 1E-06 V/s
91.2598	0.00105286	86.8	869	0.000183106
91.3598	0.00104065	86.9	870	-0.000289918	dWE(1).Potential/dt < 1E-06 V/s
91.4598	0.00105591	87	871	0.000432332
91.5598	0.00105286	87.1	872	-0.000274658	dWE(1).Potential/dt < 1E-06 V/s
91.6598	0.0010498	87.2	873	3.05187e-05
91.7598	0.00104675	87.3	874	-3.05187e-05	dWE(1).Potential/dt < 1E-06 V/s
91.8598	0.00104675	87.4	875	2.54329e-05
91.9598	0.0010498	87.5	876	4.57784e-05
92.0598	0.00104065	87.6	877	-0.000203453	dWE(1).Potential/dt < 1E-06 V/s
92.1598	0.0010498	87.7	878	0.000284833
92.2598	0.0010498	87.8	879	-0.000137329	dWE(1).Potential/dt < 1E-06 V/s
92.3598	0.0010437	87.9	880	-8.13798e-05	dWE(1).Potential/dt < 1E-06 V/s
92.4598	0.0010498	88	881	0.000183105
92.5598	0.00104065	88.1	882	-0.000259401	dWE(1).Potential/dt < 1E-06 V/s
92.6598	0.0010498	88.2	883	0.000295006
92.7598	0.0010437	88.3	884	-0.000249228	dWE(1).Potential/dt < 1E-06 V/s
92.8598	0.00104065	88.4	885	4.57738e-05
92.9598	0.00103455	88.5	886	-9.66365e-05	dWE(1).Potential/dt < 1E-06 V/s
93.0598	0.00104065	88.6	887	0.000172931
93.1598	0.0010437	88.7	888	-3.56022e-05	dWE(1).Potential/dt < 1E-06 V/s
93.2598	0.0010376	88.8	889	-0.000127159	dWE(1).Potential/dt < 1E-06 V/s
93.3598	0.00103455	88.9	890	2.54337e-05
93.4598	0.00103455	89	891	1.52593e-05
93.5598	0.0010437	89.1	892	0.000157675
93.6598	0.00104065	89.2	893	-0.000162764	dWE(1).Potential/dt < 1E-06 V/s
93.7598	0.00103455	89.3	894	-4.57738e-05	dWE(1).Potential/dt < 1E-06 V/s
93.8598	0.0010376	89.4	895	0.000116983
93.9598	0.0010437	89.5	896	5.595e-05
94.0598	0.0010376	89.6	897	-0.000172935	dWE(1).Potential/dt < 1E-06 V/s
94.1598	0.00103149	89.7	898	-2.03448e-05	dWE(1).Potential/dt < 1E-06 V/s
94.2598	0.00103149	89.8	899	5.08638e-05
94.3598	0.00103149	89.9	900	-2.03448e-05	dWE(1).Potential/dt < 1E-06 V/s
94.4598	0.00102844	90	901	-5.59473e-05	dWE(1).Potential/dt < 1E-06 V/s
94.5598	0.00102844	90.1	902	3.56018e-05
94.6598	0.00102844	90.2	903	-1.01728e-05	dWE(1).Potential/dt < 1E-06 V/s
94.7598	0.00103149	90.3	904	5.59473e-05
94.8598	0.00103149	90.4	905	-3.56018e-05	dWE(1).Potential/dt < 1E-06 V/s
94.9598	0.00102844	90.5	906	-4.57749e-05	dWE(1).Potential/dt < 1E-06 V/s
95.0598	0.00102539	90.6	907	-2.0349e-05	dWE(1).Potential/dt < 1E-06 V/s
95.1598	0.00103149	90.7	908	0.00013733
95.2598	0.00103149	90.8	909	-8.13794e-05	dWE(1).Potential/dt < 1E-06 V/s
95.3598	0.00102539	90.9	910	-9.1553e-05	dWE(1).Potential/dt < 1E-06 V/s
95.4598	0.00102844	91	911	0.000127157
95.5598	0.00102234	91.1	912	-0.000167849	dWE(1).Potential/dt < 1E-06 V/s
95.6598	0.00102844	91.2	913	0.00019328
95.7598	0.00102539	91.3	914	-0.000147505	dWE(1).Potential/dt < 1E-06 V/s
95.8598	0.00102844	91.4	915	0.0001119
95.9598	0.00102539	91.5	916	-0.000101729	dWE(1).Potential/dt < 1E-06 V/s
96.0598	0.00102234	91.6	917	-1.01708e-05	dWE(1).Potential/dt < 1E-06 V/s
96.1598	0.00101624	91.7	918	-8.64676e-05	dWE(1).Potential/dt < 1E-06 V/s
96.2598	0.00101624	91.8	919	6.10366e-05
96.3598	0.00102234	91.9	920	9.15538e-05
96.4598	0.00101929	92	921	-0.000127156	dWE(1).Potential/dt < 1E-06 V/s
96.5598	0.00101624	92.1	922	-1.16415e-09	dWE(1).Potential/dt < 1E-06 V/s
96.6598	0.00102234	92.2	923	0.000137331
96.7598	0.00101318	92.3	924	-0.000249228	dWE(1).Potential/dt < 1E-06 V/s
96.8598	0.00101624	92.4	925	0.000183103
96.9598	0.00101624	92.5	926	-6.61193e-05	dWE(1).Potential/dt < 1E-06 V/s
97.0598	0.00101318	92.6	927	-4.57749e-05	dWE(1).Potential/dt < 1E-06 V/s
97.1598	0.00101318	92.7	928	3.56018e-05
97.2598	0.00101318	92.8	929	-1.01728e-05	dWE(1).Potential/dt < 1E-06 V/s
97.3598	0.00101013	92.9	930	-5.59512e-05	dWE(1).Potential/dt < 1E-06 V/s
97.4598	0.00101318	93	931	9.15549e-05
97.5598	0.00100708	93.1	932	-0.000157677	dWE(1).Potential/dt < 1E-06 V/s
97.6598	0.00101318	93.2	933	0.00019328
97.7598	0.00101013	93.3	934	-0.000147505	dWE(1).Potential/dt < 1E-06 V/s
97.8598	0.00101318	93.4	935	0.0001119
97.9598	0.00101013	93.5	936	-0.000101729	dWE(1).Potential/dt < 1E-06 V/s
98.0598	0.00100403	93.6	937	-6.61185e-05	dWE(1).Potential/dt < 1E-06 V/s
98.1598	0.00100708	93.7	938	0.000116983
98.2598	0.00100403	93.8	939	-0.000111896	dWE(1).Potential/dt < 1E-06 V/s
98.3598	0.00100403	93.9	940	4.57769e-05
98.4598	0.00101318	94	941	0.000157675
98.5598	0.00101013	94.1	942	-0.000162764	dWE(1).Potential/dt < 1E-06 V/s
98.6598	0.00100708	94.2	943	1.01739e-05
98.7598	0.00100708	94.3	944	2.5431e-05
98.8598	0.00100403	94.4	945	-6.61201e-05	dWE(1).Potential/dt < 1E-06 V/s
98.9598	0.00100098	94.5	946	-2.03463e-05	dWE(1).Potential/dt < 1E-06 V/s
99.0598	0.00100098	94.6	947	2.54329e-05
99.1598	0.00100098	94.7	948	-1.01724e-05	dWE(1).Potential/dt < 1E-06 V/s
99.2598	0.000997925	94.8	949	-5.59473e-05	dWE(1).Potential/dt < 1E-06 V/s
99.3598	0.00100403	94.9	950	0.0001475
99.4598	0.00100098	95	951	-0.000137329	dWE(1).Potential/dt < 1E-06 V/s
99.5598	0.000997925	95.1	952	2.71636e-09	dWE(1).Potential/dt < 1E-06 V/s
99.6598	0.00100098	95.2	953	8.13767e-05
99.7598	0.00100708	95.3	954	6.61244e-05
99.8598	0.000994873	95.4	955	-0.000284833	dWE(1).Potential/dt < 1E-06 V/s
99.9598	0.000997925	95.5	956	0.000218711
100.06	0.000994873	95.6	957	-0.000132246	dWE(1).Potential/dt < 1E-06 V/s
100.16	0.00100098	95.7	958	0.000157675
100.26	0.000997925	95.8	959	-0.000137327	dWE(1).Potential/dt < 1E-06 V/s
100.36	0.000991821	95.9	960	-5.59516e-05	dWE(1).Potential/dt < 1E-06 V/s
100.46	0.000991821	96	961	6.10362e-05
100.56	0.000997925	96.1	962	9.15534e-05
100.66	0.000991821	96.2	963	-0.000183108	dWE(1).Potential/dt < 1E-06 V/s
100.76	0.000991821	96.3	964	9.15538e-05
100.86	0.000994873	96.4	965	3.56026e-05
100.96	0.000991821	96.5	966	-9.15522e-05	dWE(1).Potential/dt < 1E-06 V/s
101.06	0.000991821	96.6	967	4.57761e-05
101.16	0.000991821	96.7	968	-1.01724e-05	dWE(1).Potential/dt < 1E-06 V/s
101.26	0.000991821	96.8	969	0	dWE(1).Potential/dt < 1E-06 V/s
101.36	0.000991821	96.9	970	0	dWE(1).Potential/dt < 1E-06 V/s
101.46	0.000985718	97	971	-0.000111899	dWE(1).Potential/dt < 1E-06 V/s
101.56	0.000979614	97.1	972	-4.06895e-05	dWE(1).Potential/dt < 1E-06 V/s
101.66	0.000985718	97.2	973	0.00016276
101.76	0.000982666	97.3	974	-0.0001475	dWE(1).Potential/dt < 1E-06 V/s
101.86	0.000982666	97.4	975	5.59469e-05
101.96	0.000982666	97.5	976	-1.01728e-05	dWE(1).Potential/dt < 1E-06 V/s
102.06	0.00098877	97.6	977	0.000111898
102.16	0.000979614	97.7	978	-0.000239056	dWE(1).Potential/dt < 1E-06 V/s
102.26	0.000973511	97.8	979	1.52593e-05
102.36	0.000973511	97.9	980	4.06887e-05
102.46	0.000982666	98	981	0.000147502
102.56	0.000979614	98.1	982	-0.000162763	dWE(1).Potential/dt < 1E-06 V/s
102.66	0.000979614	98.2	983	6.61218e-05
102.76	0.000982666	98.3	984	4.57773e-05
102.86	0.000970459	98.4	985	-0.000259402	dWE(1).Potential/dt < 1E-06 V/s
102.96	0.0009765625	98.5	986	0.000264489
103.06	0.000985718	98.6	987	5.59473e-05
103.16	0.000970459	98.7	988	-0.00036621	dWE(1).Potential/dt < 1E-06 V/s
103.26	0.0009765625	98.8	989	0.000320436
103.36	0.0009765625	98.9	990	-0.000122071	dWE(1).Potential/dt < 1E-06 V/s
103.46	0.000973511	99	991	-3.56041e-05	dWE(1).Potential/dt < 1E-06 V/s
103.56	0.000973511	99.1	992	3.56029e-05
103.66	0.000964355	99.2	993	-0.000178019	dWE(1).Potential/dt < 1E-06 V/s
103.76	0.000970459	99.3	994	0.00021871
103.86	0.000967407	99.4	995	-0.000157672	dWE(1).Potential/dt < 1E-06 V/s
103.96	0.000967407	99.5	996	5.59467e-05
104.06	0.000967407	99.6	997	-1.01728e-05	dWE(1).Potential/dt < 1E-06 V/s
104.16	0.000967407	99.7	998	-3.88051e-10	dWE(1).Potential/dt < 1E-06 V/s
104.26	0.000973511	99.8	999	0.000111897
104.36	0.000967407	99.9	1000	-0.000183105	dWE(1).Potential/dt < 1E-06 V/s
104.46	0.000964355	100	1001	3.56026e-05
104.56	0.000964355	100.1	1002	1.52607e-05
104.66	0.000961304	100.2	1003	-6.61212e-05	dWE(1).Potential/dt < 1E-06 V/s
104.76	0.000958252	100.3	1004	-2.03457e-05	dWE(1).Potential/dt < 1E-06 V/s
104.86	0.000970459	100.4	1005	0.000249226
104.96	0.000961304	100.5	1006	-0.000320433	dWE(1).Potential/dt < 1E-06 V/s
105.06	0.000964355	100.6	1007	0.00020345
105.16	0.000958252	100.7	1008	-0.000178019	dWE(1).Potential/dt < 1E-06 V/s
105.26	0.000961304	100.8	1009	0.000137328
105.36	0.000958252	100.9	1010	-0.000111898	dWE(1).Potential/dt < 1E-06 V/s
105.46	0.000967407	101	1011	0.000213623
105.56	0.000961304	101.1	1012	-0.000228884	dWE(1).Potential/dt < 1E-06 V/s
105.66	0.0009552	101.2	1013	-1.01722e-05	dWE(1).Potential/dt < 1E-06 V/s
105.76	0.000961304	101.3	1014	0.000162762
105.86	0.000952148	101.4	1015	-0.0002594	dWE(1).Potential/dt < 1E-06 V/s
105.96	0.000958252	101.5	1016	0.000239052
106.06	0.0009552	101.6	1017	-0.000157675	dWE(1).Potential/dt < 1E-06 V/s
106.16	0.0009552	101.7	1018	5.59504e-05
106.26	0.0009552	101.8	1019	-1.01722e-05	dWE(1).Potential/dt < 1E-06 V/s
106.36	0.0009552	101.9	1020	3.88051e-10	dWE(1).Potential/dt < 1E-06 V/s
106.46	0.0009552	102	1021	3.88051e-10	dWE(1).Potential/dt < 1E-06 V/s
106.56	0.0009552	102.1	1022	3.88051e-10	dWE(1).Potential/dt < 1E-06 V/s
106.66	0.000952148	102.2	1023	-5.59473e-05	dWE(1).Potential/dt < 1E-06 V/s
106.76	0.000949097	102.3	1024	-2.03475e-05	dWE(1).Potential/dt < 1E-06 V/s
106.86	0.000952148	102.4	1025	8.13825e-05
106.96	0.000952148	102.5	1026	-4.5778e-05	dWE(1).Potential/dt < 1E-06 V/s
107.06	0.000952148	102.6	1027	1.01722e-05
107.16	0.000952148	102.7	1028	-3.88051e-10	dWE(1).Potential/dt < 1E-06 V/s
107.26	0.000952148	102.8	1029	-3.88051e-10	dWE(1).Potential/dt < 1E-06 V/s
107.36	0.000952148	102.9	1030	-3.88051e-10	dWE(1).Potential/dt < 1E-06 V/s
107.46	0.000949097	103	1031	-5.59496e-05	dWE(1).Potential/dt < 1E-06 V/s
107.56	0.000949097	103.1	1032	3.56057e-05
107.66	0.000949097	103.2	1033	-1.0172e-05	dWE(1).Potential/dt < 1E-06 V/s
107.76	0.000952148	103.3	1034	5.59498e-05
107.86	0.000952148	103.4	1035	-3.56055e-05	dWE(1).Potential/dt < 1E-06 V/s
107.96	0.000952148	103.5	1036	1.01722e-05
108.06	0.000952148	103.6	1037	-3.88051e-10	dWE(1).Potential/dt < 1E-06 V/s
108.16	0.000942993	103.7	1038	-0.000167848	dWE(1).Potential/dt < 1E-06 V/s
108.26	0.000942993	103.8	1039	0.000106812
108.36	0.000949097	103.9	1040	8.13802e-05
108.46	0.000942993	104	1041	-0.000183105	dWE(1).Potential/dt < 1E-06 V/s
108.56	0.000942993	104.1	1042	9.15516e-05
108.66	0.000946045	104.2	1043	3.56035e-05
108.76	0.000939941	104.3	1044	-0.000147502	dWE(1).Potential/dt < 1E-06 V/s
108.86	0.000946045	104.4	1045	0.00019328
108.96	0.000949097	104.5	1046	-3.56045e-05	dWE(1).Potential/dt < 1E-06 V/s
109.06	0.000939941	104.6	1047	-0.000183106	dWE(1).Potential/dt < 1E-06 V/s
109.16	0.000939941	104.7	1048	0.000116985
109.26	0.000942993	104.8	1049	2.54319e-05
109.36	0.000939941	104.9	1050	-9.15549e-05	dWE(1).Potential/dt < 1E-06 V/s
109.46	0.000933838	105	1051	-6.61189e-05	dWE(1).Potential/dt < 1E-06 V/s
109.56	0.000939941	105.1	1052	0.000172932
109.66	0.000933838	105.2	1053	-0.000203449	dWE(1).Potential/dt < 1E-06 V/s
109.76	0.000933838	105.3	1054	9.15528e-05
109.86	0.000942993	105.4	1055	0.000147502
109.96	0.00093689	105.5	1056	-0.00021871	dWE(1).Potential/dt < 1E-06 V/s
110.06	0.000942993	105.6	1057	0.000213621
110.16	0.000927734	105.7	1058	-0.000371298	dWE(1).Potential/dt < 1E-06 V/s
110.26	0.000930786	105.8	1059	0.000254313
110.36	0.000933838	105.9	1060	-3.05169e-05	dWE(1).Potential/dt < 1E-06 V/s
110.46	0.000933838	106	1061	-2.54304e-05	dWE(1).Potential/dt < 1E-06 V/s
110.56	0.000933838	106.1	1062	1.01732e-05
110.66	0.000924683	106.2	1063	-0.000167847	dWE(1).Potential/dt < 1E-06 V/s
110.76	0.000930786	106.3	1064	0.000218711
110.86	0.000927734	106.4	1065	-0.000157676	dWE(1).Potential/dt < 1E-06 V/s
110.96	0.000930786	106.5	1066	0.000111897
111.06	0.000927734	106.6	1067	-0.000101725	dWE(1).Potential/dt < 1E-06 V/s
111.16	0.000939941	106.7	1068	0.000269571
111.26	0.000930786	106.8	1069	-0.000320433	dWE(1).Potential/dt < 1E-06 V/s
111.36	0.000933838	106.9	1070	0.00020345
111.46	0.000927734	107	1071	-0.000178019	dWE(1).Potential/dt < 1E-06 V/s
111.56	0.000921631	107.1	1072	-3.05179e-05	dWE(1).Potential/dt < 1E-06 V/s
111.66	0.000930786	107.2	1073	0.000218708
111.76	0.000930786	107.3	1074	-0.000127156	dWE(1).Potential/dt < 1E-06 V/s
111.86	0.000924683	107.4	1075	-8.1381e-05	dWE(1).Potential/dt < 1E-06 V/s
111.96	0.000924683	107.5	1076	7.1209e-05
112.06	0.000927734	107.6	1077	3.56045e-05
112.16	0.000921631	107.7	1078	-0.000147503	dWE(1).Potential/dt < 1E-06 V/s
112.26	0.000921631	107.8	1079	8.13794e-05
112.36	0.000915527	107.9	1080	-0.000132244	dWE(1).Potential/dt < 1E-06 V/s
112.46	0.000918579	108	1081	0.000127158
112.56	0.000921631	108.1	1082	1.16415e-09	dWE(1).Potential/dt < 1E-06 V/s
112.66	0.000921631	108.2	1083	-2.54329e-05	dWE(1).Potential/dt < 1E-06 V/s
112.76	0.000924683	108.3	1084	6.61199e-05
112.86	0.000921631	108.4	1085	-9.15495e-05	dWE(1).Potential/dt < 1E-06 V/s
112.96	0.000924683	108.5	1086	0.000101722
113.06	0.000927734	108.6	1087	1.01751e-05
113.16	0.000921631	108.7	1088	-0.00013733	dWE(1).Potential/dt < 1E-06 V/s
113.26	0.000924683	108.8	1089	0.000137327
113.36	0.000918579	108.9	1090	-0.000167844	dWE(1).Potential/dt < 1E-06 V/s
113.46	0.000915527	109	1091	2.5431e-05
113.56	0.000915527	109.1	1092	1.52586e-05
113.66	0.000918579	109.2	1093	4.57767e-05
113.76	0.000918579	109.3	1094	-3.56029e-05	dWE(1).Potential/dt < 1E-06 V/s
113.86	0.000918579	109.4	1095	1.01732e-05
113.96	0.000915527	109.5	1096	-5.59487e-05	dWE(1).Potential/dt < 1E-06 V/s
114.06	0.000909424	109.6	1097	-7.6295e-05	dWE(1).Potential/dt < 1E-06 V/s
114.16	0.000912476	109.7	1098	0.000116986
114.26	0.000915527	109.8	1099	-1.55221e-09	dWE(1).Potential/dt < 1E-06 V/s
114.36	0.000912476	109.9	1100	-8.13802e-05	dWE(1).Potential/dt < 1E-06 V/s
114.46	0.000915527	110	1101	0.000101725
114.56	0.000909424	110.1	1102	-0.000157675	dWE(1).Potential/dt < 1E-06 V/s
114.66	0.000912476	110.2	1103	0.000137331
114.76	0.000912476	110.3	1104	-5.59508e-05	dWE(1).Potential/dt < 1E-06 V/s
114.86	0.000909424	110.4	1105	-4.57773e-05	dWE(1).Potential/dt < 1E-06 V/s
114.96	0.000909424	110.5	1106	3.56055e-05
115.06	0.000906372	110.6	1107	-6.61199e-05	dWE(1).Potential/dt < 1E-06 V/s
115.16	0.000906372	110.7	1108	3.56018e-05
115.26	0.000900269	110.8	1109	-0.000122071	dWE(1).Potential/dt < 1E-06 V/s
115.36	0.00090332	110.9	1110	0.000127158
115.46	0.00090332	111	1111	-5.59481e-05	dWE(1).Potential/dt < 1E-06 V/s
115.56	0.000897217	111.1	1112	-0.000101725	dWE(1).Potential/dt < 1E-06 V/s
115.66	0.000897217	111.2	1113	7.12065e-05
115.76	0.000900269	111.3	1114	3.56035e-05
115.86	0.000897217	111.4	1115	-9.15528e-05	dWE(1).Potential/dt < 1E-06 V/s
115.96	0.000900269	111.5	1116	0.000101725
116.06	0.000900269	111.6	1117	-4.57761e-05	dWE(1).Potential/dt < 1E-06 V/s
116.16	0.000900269	111.7	1118	1.01726e-05
116.26	0.000897217	111.8	1119	-5.59493e-05	dWE(1).Potential/dt < 1E-06 V/s
116.36	0.000894165	111.9	1120	-2.03463e-05	dWE(1).Potential/dt < 1E-06 V/s
116.46	0.000897217	112	1121	8.13821e-05
116.56	0.000900269	112.1	1122	1.0171e-05
116.66	0.000897217	112.2	1123	-8.13802e-05	dWE(1).Potential/dt < 1E-06 V/s
116.76	0.000894165	112.3	1124	-1.01737e-05	dWE(1).Potential/dt < 1E-06 V/s
116.86	0.000894165	112.4	1125	2.54329e-05
116.96	0.000891113	112.5	1126	-6.61199e-05	dWE(1).Potential/dt < 1E-06 V/s
117.06	0.000897217	112.6	1127	0.000147499
117.16	0.000891113	112.7	1128	-0.000193277	dWE(1).Potential/dt < 1E-06 V/s
117.26	0.000900269	112.8	1129	0.000259398
117.36	0.000891113	112.9	1130	-0.000295002	dWE(1).Potential/dt < 1E-06 V/s
117.46	0.000891113	113	1131	0.000137328
117.56	0.000897217	113.1	1132	8.1379e-05
117.66	0.000894165	113.2	1133	-0.000127157	dWE(1).Potential/dt < 1E-06 V/s
117.76	0.000891113	113.3	1134	2.71636e-09	dWE(1).Potential/dt < 1E-06 V/s
117.86	0.000891113	113.4	1135	2.54292e-05
117.96	0.000894165	113.5	1136	4.57749e-05
118.06	0.000891113	113.6	1137	-9.15495e-05	dWE(1).Potential/dt < 1E-06 V/s
118.16	0.000888062	113.7	1138	-1.01751e-05	dWE(1).Potential/dt < 1E-06 V/s
118.26	0.000888062	113.8	1139	2.54333e-05
118.36	0.000888062	113.9	1140	-1.0172e-05	dWE(1).Potential/dt < 1E-06 V/s
118.46	0.000888062	114	1141	5.82077e-10	dWE(1).Potential/dt < 1E-06 V/s
118.56	0.00088501	114.1	1142	-5.59487e-05	dWE(1).Potential/dt < 1E-06 V/s
118.66	0.00088501	114.2	1143	3.56035e-05
118.76	0.000881958	114.3	1144	-6.61218e-05	dWE(1).Potential/dt < 1E-06 V/s
118.86	0.000881958	114.4	1145	3.56029e-05
118.96	0.000891113	114.5	1146	0.000157675
119.06	0.000878906	114.6	1147	-0.00033061	dWE(1).Potential/dt < 1E-06 V/s
119.16	0.000875854	114.7	1148	0.000116988
119.26	0.000875854	114.8	1149	-5.08852e-06	dWE(1).Potential/dt < 1E-06 V/s
119.36	0.000881958	114.9	1150	0.000101724
119.46	0.000869751	115	1151	-0.000295003	dWE(1).Potential/dt < 1E-06 V/s
119.56	0.000878906	115.1	1152	0.000330607
119.66	0.00088501	115.2	1153	-3.5602e-05	dWE(1).Potential/dt < 1E-06 V/s
119.76	0.000878906	115.3	1154	-0.00015259	dWE(1).Potential/dt < 1E-06 V/s
119.86	0.000872803	115.4	1155	-2.03428e-05	dWE(1).Potential/dt < 1E-06 V/s
119.96	0.000875854	115.5	1156	0.000106812
120.06	0.000881958	115.6	1157	5.59465e-05
120.16	0.000875854	115.7	1158	-0.000172932	dWE(1).Potential/dt < 1E-06 V/s
120.26	0.000872803	115.8	1159	3.56026e-05
120.36	0.000869751	115.9	1160	-4.06886e-05	dWE(1).Potential/dt < 1E-06 V/s
120.46	0.000866699	116	1161	-3.05183e-05	dWE(1).Potential/dt < 1E-06 V/s
120.56	0.000869751	116.1	1162	8.13812e-05
120.66	0.000872803	116.2	1163	1.01724e-05
120.76	0.000866699	116.3	1164	-0.000137329	dWE(1).Potential/dt < 1E-06 V/s
120.86	0.000872803	116.4	1165	0.000193279
120.96	0.000863647	116.5	1166	-0.0002594	dWE(1).Potential/dt < 1E-06 V/s
121.06	0.000866699	116.6	1167	0.000183105
121.16	0.000869751	116.7	1168	-1.01718e-05	dWE(1).Potential/dt < 1E-06 V/s
121.26	0.000866699	116.8	1169	-8.1381e-05	dWE(1).Potential/dt < 1E-06 V/s
121.36	0.000860596	116.9	1170	-6.61199e-05	dWE(1).Potential/dt < 1E-06 V/s
121.46	0.000866699	117	1171	0.000172932
121.56	0.000863647	117.1	1172	-0.000147501	dWE(1).Potential/dt < 1E-06 V/s
121.66	0.000863647	117.2	1173	5.59481e-05
121.76	0.000863647	117.3	1174	-1.0173e-05	dWE(1).Potential/dt < 1E-06 V/s
121.86	0.000860596	117.4	1175	-5.59481e-05	dWE(1).Potential/dt < 1E-06 V/s
121.96	0.000857544	117.5	1176	-2.03451e-05	dWE(1).Potential/dt < 1E-06 V/s
122.06	0.000860596	117.6	1177	8.13802e-05
122.16	0.000857544	117.7	1178	-0.000101725	dWE(1).Potential/dt < 1E-06 V/s
122.26	0.000857544	117.8	1179	4.57759e-05
122.36	0.000863647	117.9	1180	0.000101724
122.46	0.000860596	118	1181	-0.000127155	dWE(1).Potential/dt < 1E-06 V/s
122.56	0.000857544	118.1	1182	-1.94026e-10	dWE(1).Potential/dt < 1E-06 V/s
122.66	0.000857544	118.2	1183	2.5431e-05
122.76	0.00085144	118.3	1184	-0.000122071	dWE(1).Potential/dt < 1E-06 V/s
122.86	0.000860596	118.4	1185	0.000239057
122.96	0.000854492	118.5	1186	-0.000239055	dWE(1).Potential/dt < 1E-06 V/s
123.06	0.00085144	118.6	1187	4.57763e-05
123.16	0.000854492	118.7	1188	7.12086e-05
123.26	0.000854492	118.8	1189	-4.57769e-05	dWE(1).Potential/dt < 1E-06 V/s
123.36	0.00085144	118.9	1190	-4.57767e-05	dWE(1).Potential/dt < 1E-06 V/s
123.46	0.000845337	119	1191	-7.62925e-05	dWE(1).Potential/dt < 1E-06 V/s
123.56	0.000854492	119.1	1192	0.000228881
123.66	0.00085144	119.2	1193	-0.000183106	dWE(1).Potential/dt < 1E-06 V/s
123.76	0.000857544	119.3	1194	0.000178021
123.86	0.000848389	119.4	1195	-0.000249229	dWE(1).Potential/dt < 1E-06 V/s
123.96	0.00085144	119.5	1196	0.000183106
124.06	0.000854492	119.6	1197	-1.01718e-05	dWE(1).Potential/dt < 1E-06 V/s
124.16	0.00085144	119.7	1198	-8.1381e-05	dWE(1).Potential/dt < 1E-06 V/s
124.26	0.000845337	119.8	1199	-6.61199e-05	dWE(1).Potential/dt < 1E-06 V/s
124.36	0.000848389	119.9	1200	0.000116983