File: data/20200212/OCP_p27_1.txt
Time (s)	WE(1).Potential (V)	Corrected time (s)	Index	dWE(1).Potential/dt (V/s)	Cutoffs	OCP value (V)
10.6989	-0.0268433	0	1	0	dWE(1).Potential/dt < 1E-06 V/s	-0.0275877
10.7989	-0.0268402	0.1	2	3.051e-05
10.8989	-0.0268463	0.2	3	-0.000106822	dWE(1).Potential/dt < 1E-06 V/s
10.9989	-0.0268463	0.3	4	8.13973e-05
11.0989	-0.0268433	0.4	5	3.56385e-05
11.1989	-0.0268494	0.5	6	-0.000147515	dWE(1).Potential/dt < 1E-06 V/s
11.2989	-0.0268433	0.6	7	0.000193274
11.3989	-0.0268524	0.7	8	-0.000259416	dWE(1).Potential/dt < 1E-06 V/s
11.4989	-0.0268433	0.8	9	0.000295036
11.5989	-0.0268524	0.9	10	-0.000305212	dWE(1).Potential/dt < 1E-06 V/s
11.6989	-0.0268585	1	11	2.54685e-05
11.7989	-0.0268524	1.1	12	0.00015255
11.8989	-0.0268585	1.2	13	-0.000203412	dWE(1).Potential/dt < 1E-06 V/s
11.9989	-0.0268585	1.3	14	9.15549e-05
12.0989	-0.0268555	1.4	15	3.56012e-05
12.1989	-0.0268494	1.5	16	7.63061e-05
12.2989	-0.0268585	1.6	17	-0.000228893	dWE(1).Potential/dt < 1E-06 V/s
12.3989	-0.0268555	1.7	18	0.00018311
12.4989	-0.0268555	1.8	19	-6.61174e-05	dWE(1).Potential/dt < 1E-06 V/s
12.5989	-0.0268555	1.9	20	1.017e-05
12.6989	-0.0268585	2	21	-5.59288e-05	dWE(1).Potential/dt < 1E-06 V/s
12.7989	-0.0268616	2.1	22	-2.03648e-05	dWE(1).Potential/dt < 1E-06 V/s
12.8989	-0.0268585	2.2	23	8.14345e-05
12.9989	-0.0268646	2.3	24	-0.000157691	dWE(1).Potential/dt < 1E-06 V/s
13.0989	-0.0268646	2.4	25	8.13662e-05
13.1989	-0.0268616	2.5	26	3.55764e-05
13.2989	-0.0268585	2.6	27	2.04083e-05
13.3989	-0.0268677	2.7	28	-0.000193323	dWE(1).Potential/dt < 1E-06 V/s
13.4989	-0.0268677	2.8	29	0.00011698
13.5989	-0.0268646	2.9	30	2.54436e-05
13.6989	-0.0268616	3	31	2.03028e-05
13.7989	-0.0268677	3.1	32	-0.000137301	dWE(1).Potential/dt < 1E-06 V/s
13.8989	-0.0268738	3.2	33	-3.05038e-05	dWE(1).Potential/dt < 1E-06 V/s
13.9989	-0.0268707	3.3	34	0.000106797
14.0989	-0.0268677	3.4	35	-1.24176e-08	dWE(1).Potential/dt < 1E-06 V/s
14.1989	-0.0268677	3.5	36	-2.54436e-05	dWE(1).Potential/dt < 1E-06 V/s
14.2989	-0.0268768	3.6	37	-0.000157679	dWE(1).Potential/dt < 1E-06 V/s
14.3989	-0.0268646	3.7	38	0.000330643
14.4989	-0.0268677	3.8	39	-0.000228943	dWE(1).Potential/dt < 1E-06 V/s
14.5989	-0.0268677	3.9	40	7.62999e-05
14.6989	-0.0268677	4	41	-1.01886e-05	dWE(1).Potential/dt < 1E-06 V/s
14.7989	-0.0268738	4.1	42	-0.00011187	dWE(1).Potential/dt < 1E-06 V/s
14.8989	-0.0268707	4.2	43	0.000127144
14.9989	-0.0268707	4.3	44	-5.59412e-05	dWE(1).Potential/dt < 1E-06 V/s
15.0989	-0.0268646	4.4	45	0.000122077
15.1989	-0.0268738	4.5	46	-0.000239063	dWE(1).Potential/dt < 1E-06 V/s
15.2989	-0.0268829	4.6	47	-4.07049e-05	dWE(1).Potential/dt < 1E-06 V/s
15.3989	-0.0268921	4.7	48	-9.15487e-05	dWE(1).Potential/dt < 1E-06 V/s
15.4989	-0.0268768	4.8	49	0.000356049
15.5989	-0.0268829	4.9	50	-0.000320436	dWE(1).Potential/dt < 1E-06 V/s
15.6989	-0.0268768	5	51	0.000233954
15.7989	-0.0268829	5.1	52	-0.000203444	dWE(1).Potential/dt < 1E-06 V/s
15.8989	-0.0268829	5.2	53	9.153e-05
15.9989	-0.0268799	5.3	54	3.56198e-05
16.0989	-0.026889	5.4	55	-0.000203462	dWE(1).Potential/dt < 1E-06 V/s
16.1989	-0.026889	5.5	56	0.000117011
16.2989	-0.0268829	5.6	57	8.13538e-05
16.3989	-0.026889	5.7	58	-0.000183072	dWE(1).Potential/dt < 1E-06 V/s
16.4989	-0.0268829	5.8	59	0.000203412
16.5989	-0.0268921	5.9	60	-0.000259391	dWE(1).Potential/dt < 1E-06 V/s
16.6989	-0.0268951	6	61	7.12397e-05
16.7989	-0.0268951	6.1	62	5.05396e-06
16.8989	-0.026886	6.2	63	0.00015766
16.9989	-0.0268951	6.3	64	-0.000274634	dWE(1).Potential/dt < 1E-06 V/s
17.0989	-0.0268951	6.4	65	0.000137307
17.1989	-0.0269012	6.5	66	-0.00014243	dWE(1).Potential/dt < 1E-06 V/s
17.2989	-0.026889	6.6	67	0.000295036
17.3989	-0.0268921	6.7	68	-0.00021873	dWE(1).Potential/dt < 1E-06 V/s
17.4989	-0.0269043	6.8	69	-0.000147446	dWE(1).Potential/dt < 1E-06 V/s
17.5989	-0.0268982	6.9	70	0.000244093
17.6989	-0.0269012	7	71	-0.00016783	dWE(1).Potential/dt < 1E-06 V/s
17.7989	-0.0269073	7.1	72	-5.59661e-05	dWE(1).Potential/dt < 1E-06 V/s
17.8989	-0.0269043	7.2	73	0.000117036
17.9989	-0.0269012	7.3	74	-2.48352e-08	dWE(1).Potential/dt < 1E-06 V/s
18.0989	-0.0269073	7.4	75	-0.000137332	dWE(1).Potential/dt < 1E-06 V/s
18.1989	-0.0269073	7.5	76	8.13973e-05
18.2989	-0.0269073	7.6	77	-2.034e-05	dWE(1).Potential/dt < 1E-06 V/s
18.3989	-0.0269165	7.7	78	-0.00016783	dWE(1).Potential/dt < 1E-06 V/s
18.4989	-0.0269165	7.8	79	0.000106797
18.5989	-0.0269043	7.9	80	0.000193298
18.6989	-0.0269104	8	81	-0.000254312	dWE(1).Potential/dt < 1E-06 V/s
18.7989	-0.0269165	8.1	82	-2.48352e-08	dWE(1).Potential/dt < 1E-06 V/s
18.8989	-0.0269165	8.2	83	5.08749e-05
18.9989	-0.0269165	8.3	84	-2.03462e-05	dWE(1).Potential/dt < 1E-06 V/s
19.0989	-0.0269104	8.4	85	0.000111907
19.1989	-0.0269165	8.5	86	-0.000183135	dWE(1).Potential/dt < 1E-06 V/s
19.2989	-0.0269165	8.6	87	9.15673e-05
19.3989	-0.0269165	8.7	88	-2.03462e-05	dWE(1).Potential/dt < 1E-06 V/s
19.4989	-0.0269196	8.8	89	-5.59288e-05	dWE(1).Potential/dt < 1E-06 V/s
19.5989	-0.0269257	8.9	90	-7.62937e-05	dWE(1).Potential/dt < 1E-06 V/s
19.6989	-0.0269165	9	91	0.000228856
19.7989	-0.0269196	9.1	92	-0.000183072	dWE(1).Potential/dt < 1E-06 V/s
19.8989	-0.0269196	9.2	93	6.61299e-05
19.9989	-0.0269226	9.3	94	-6.61361e-05	dWE(1).Potential/dt < 1E-06 V/s
20.0989	-0.0269226	9.4	95	3.56261e-05
20.1989	-0.0269348	9.5	96	-0.000233935	dWE(1).Potential/dt < 1E-06 V/s
20.2989	-0.0269348	9.6	97	0.000142411
20.3989	-0.0269318	9.7	98	1.5255e-05
20.4989	-0.0269226	9.8	99	0.000132235
20.5989	-0.0269318	9.9	100	-0.000264457	dWE(1).Potential/dt < 1E-06 V/s
20.6989	-0.0269318	10	101	0.000137314
20.7989	-0.0269379	10.1	102	-0.000142424	dWE(1).Potential/dt < 1E-06 V/s
20.8989	-0.0269348	10.2	103	0.000127206
20.9989	-0.0269348	10.3	104	-5.59536e-05	dWE(1).Potential/dt < 1E-06 V/s
21.0989	-0.0269409	10.4	105	-0.000101719	dWE(1).Potential/dt < 1E-06 V/s
21.1989	-0.026944	10.5	106	1.52115e-05
21.2989	-0.026944	10.6	107	1.52612e-05
21.3989	-0.0269348	10.7	108	0.000157697
21.4989	-0.0269379	10.8	109	-0.000162782	dWE(1).Potential/dt < 1E-06 V/s
21.5989	-0.026947	10.9	110	-0.000101688	dWE(1).Potential/dt < 1E-06 V/s
21.6989	-0.0269501	11	111	4.06924e-05
21.7989	-0.0269379	11.1	112	0.000228862
21.8989	-0.0269501	11.2	113	-0.000376327	dWE(1).Potential/dt < 1E-06 V/s
21.9989	-0.026947	11.3	114	0.000239026
22.0989	-0.0269501	11.4	115	-0.000132216	dWE(1).Potential/dt < 1E-06 V/s
22.1989	-0.026947	11.5	116	0.000101712
22.2989	-0.0269501	11.6	117	-0.0001017	dWE(1).Potential/dt < 1E-06 V/s
22.3989	-0.0269501	11.7	118	4.57836e-05
22.4989	-0.0269531	11.8	119	-6.61361e-05	dWE(1).Potential/dt < 1E-06 V/s
22.5989	-0.0269623	11.9	120	-0.00013221	dWE(1).Potential/dt < 1E-06 V/s
22.6989	-0.0269531	12	121	0.000264457
22.7989	-0.0269562	12.1	122	-0.000193236	dWE(1).Potential/dt < 1E-06 V/s
22.8989	-0.0269592	12.2	123	1.01079e-05
22.9989	-0.0269623	12.3	124	-3.04914e-05	dWE(1).Potential/dt < 1E-06 V/s
23.0989	-0.0269623	12.4	125	2.5425e-05
23.1989	-0.0269653	12.5	126	-6.60988e-05	dWE(1).Potential/dt < 1E-06 V/s
23.2989	-0.0269653	12.6	127	3.56136e-05
23.3989	-0.0269623	12.7	128	4.57712e-05
23.4989	-0.0269653	12.8	129	-9.153e-05	dWE(1).Potential/dt < 1E-06 V/s
23.5989	-0.0269653	12.9	130	4.57836e-05
23.6989	-0.0269714	13	131	-0.000122065	dWE(1).Potential/dt < 1E-06 V/s
23.7989	-0.0269653	13.1	132	0.000183097
23.8989	-0.0269623	13.2	133	-3.56012e-05	dWE(1).Potential/dt < 1E-06 V/s
23.9989	-0.0269684	13.3	134	-0.000127162	dWE(1).Potential/dt < 1E-06 V/s
24.0989	-0.0269714	13.4	135	2.54685e-05
24.1989	-0.0269714	13.5	136	1.5224e-05
24.2989	-0.0269714	13.6	137	-1.01762e-05	dWE(1).Potential/dt < 1E-06 V/s
24.3989	-0.0269714	13.7	138	-6.20879e-09	dWE(1).Potential/dt < 1E-06 V/s
24.4989	-0.0269745	13.8	139	-5.59847e-05	dWE(1).Potential/dt < 1E-06 V/s
24.5989	-0.0269775	13.9	140	-2.03214e-05	dWE(1).Potential/dt < 1E-06 V/s
24.6989	-0.0269806	14	141	-3.05038e-05	dWE(1).Potential/dt < 1E-06 V/s
24.7989	-0.0269745	14.1	142	0.000137301
24.8989	-0.0269836	14.2	143	-0.000249221	dWE(1).Potential/dt < 1E-06 V/s
24.9989	-0.0269836	14.3	144	0.000127169
25.0989	-0.0269836	14.4	145	-3.051e-05	dWE(1).Potential/dt < 1E-06 V/s
25.1989	-0.0269867	14.5	146	-5.59226e-05	dWE(1).Potential/dt < 1E-06 V/s
25.2989	-0.0269836	14.6	147	9.1499e-05
25.3989	-0.0269867	14.7	148	-0.000101669	dWE(1).Potential/dt < 1E-06 V/s
25.4989	-0.0269867	14.8	149	4.57402e-05
25.5989	-0.0269867	14.9	150	-1.01762e-05	dWE(1).Potential/dt < 1E-06 V/s
25.6989	-0.0269806	15	151	0.000111901
25.7989	-0.0269867	15.1	152	-0.000183091	dWE(1).Potential/dt < 1E-06 V/s
25.8989	-0.0269867	15.2	153	9.15362e-05
25.9989	-0.0269897	15.3	154	-7.63309e-05	dWE(1).Potential/dt < 1E-06 V/s
26.0989	-0.0269836	15.4	155	0.000147515
26.1989	-0.0269897	15.5	156	-0.000193274	dWE(1).Potential/dt < 1E-06 V/s
26.2989	-0.0269958	15.6	157	-2.03276e-05	dWE(1).Potential/dt < 1E-06 V/s
26.3989	-0.0269989	15.7	158	-5.10984e-06	dWE(1).Potential/dt < 1E-06 V/s
26.4989	-0.0269958	15.8	159	7.12645e-05
26.5989	-0.027002	15.9	160	-0.000157691	dWE(1).Potential/dt < 1E-06 V/s
26.6989	-0.027002	16	161	8.13662e-05
26.7989	-0.0269928	16.1	162	0.000147484
26.8989	-0.027005	16.2	163	-0.000330612	dWE(1).Potential/dt < 1E-06 V/s
26.9989	-0.027002	16.3	164	0.0002289
27.0989	-0.0270081	16.4	165	-0.000188226	dWE(1).Potential/dt < 1E-06 V/s
27.1989	-0.027002	16.5	166	0.000193305
27.2989	-0.027005	16.6	167	-0.000147552	dWE(1).Potential/dt < 1E-06 V/s
27.3989	-0.027005	16.7	168	5.59536e-05
27.4989	-0.0270111	16.8	169	-0.000122046	dWE(1).Potential/dt < 1E-06 V/s
27.5989	-0.027005	16.9	170	0.000183072
27.6989	-0.027005	17	171	-9.15549e-05	dWE(1).Potential/dt < 1E-06 V/s
27.7989	-0.027005	17.1	172	2.03276e-05
27.8989	-0.0270081	17.2	173	-5.59412e-05	dWE(1).Potential/dt < 1E-06 V/s
27.9989	-0.027005	17.3	174	9.153e-05
28.0989	-0.027005	17.4	175	-4.57836e-05	dWE(1).Potential/dt < 1E-06 V/s
28.1989	-0.0270111	17.5	176	-0.0001017	dWE(1).Potential/dt < 1E-06 V/s
28.2989	-0.027002	17.6	177	0.000239051
28.3989	-0.027005	17.7	178	-0.000183147	dWE(1).Potential/dt < 1E-06 V/s
28.4989	-0.0270081	17.8	179	1.01948e-05
28.5989	-0.0270081	17.9	180	2.5425e-05
28.6989	-0.0270081	18	181	-1.017e-05	dWE(1).Potential/dt < 1E-06 V/s
28.7989	-0.0270081	18.1	182	0	dWE(1).Potential/dt < 1E-06 V/s
28.8989	-0.0270142	18.2	183	-0.000111907	dWE(1).Potential/dt < 1E-06 V/s
28.9989	-0.0270081	18.3	184	0.000183135
29.0989	-0.0270081	18.4	185	-9.15673e-05	dWE(1).Potential/dt < 1E-06 V/s
29.1989	-0.0270111	18.5	186	-3.55826e-05	dWE(1).Potential/dt < 1E-06 V/s
29.2989	-0.0270111	18.6	187	3.56136e-05
29.3989	-0.0270172	18.7	188	-0.000122065	dWE(1).Potential/dt < 1E-06 V/s
29.4989	-0.027005	18.8	189	0.000294955
29.5989	-0.0270142	18.9	190	-0.000330593	dWE(1).Potential/dt < 1E-06 V/s
29.6989	-0.0270142	19	191	0.000147515
29.7989	-0.0270142	19.1	192	-3.051e-05	dWE(1).Potential/dt < 1E-06 V/s
29.8989	-0.0270172	19.2	193	-5.59226e-05	dWE(1).Potential/dt < 1E-06 V/s
29.9989	-0.0270172	19.3	194	3.55702e-05
30.0989	-0.0270142	19.4	195	4.57526e-05
30.1989	-0.0270111	19.5	196	2.04083e-05
30.2989	-0.0270142	19.6	197	-8.14159e-05	dWE(1).Potential/dt < 1E-06 V/s
30.3989	-0.0270203	19.7	198	-6.6105e-05	dWE(1).Potential/dt < 1E-06 V/s
30.4989	-0.0270203	19.8	199	6.10076e-05
30.5989	-0.0270203	19.9	200	-2.03586e-05	dWE(1).Potential/dt < 1E-06 V/s
30.6989	-0.0270203	20	201	-1.24176e-08	dWE(1).Potential/dt < 1E-06 V/s
30.7989	-0.0270233	20.1	202	-5.59412e-05	dWE(1).Potential/dt < 1E-06 V/s
30.8989	-0.0270233	20.2	203	3.56012e-05
30.9989	-0.0270264	20.3	204	-6.60988e-05	dWE(1).Potential/dt < 1E-06 V/s
31.0989	-0.0270203	20.4	205	0.000147471
31.1989	-0.0270264	20.5	206	-0.000193242	dWE(1).Potential/dt < 1E-06 V/s
31.2989	-0.0270233	20.6	207	0.000147484
31.3989	-0.0270294	20.7	208	-0.000167849	dWE(1).Potential/dt < 1E-06 V/s
31.4989	-0.0270172	20.8	209	0.000305212
31.5989	-0.0270264	20.9	210	-0.000330631	dWE(1).Potential/dt < 1E-06 V/s
31.6989	-0.0270325	21	211	3.56198e-05
31.7989	-0.0270325	21.1	212	4.06738e-05
31.8989	-0.0270264	21.2	213	9.15549e-05
31.9989	-0.0270294	21.3	214	-0.000127162	dWE(1).Potential/dt < 1E-06 V/s
32.0989	-0.0270264	21.4	215	0.000111951
32.1989	-0.0270386	21.5	216	-0.000269598	dWE(1).Potential/dt < 1E-06 V/s
32.2989	-0.0270325	21.6	217	0.000264501
32.3989	-0.0270386	21.7	218	-0.000223827	dWE(1).Potential/dt < 1E-06 V/s
32.4989	-0.0270294	21.8	219	0.000259403
32.5989	-0.0270355	21.9	220	-0.000239045	dWE(1).Potential/dt < 1E-06 V/s
32.6989	-0.0270325	22	221	0.000157679
32.7989	-0.0270355	22.1	222	-0.000111951	dWE(1).Potential/dt < 1E-06 V/s
32.8989	-0.0270355	22.2	223	4.57836e-05
32.9989	-0.0270355	22.3	224	-1.01886e-05	dWE(1).Potential/dt < 1E-06 V/s
33.0989	-0.0270447	22.4	225	-0.000167849	dWE(1).Potential/dt < 1E-06 V/s
33.1989	-0.0270386	22.5	226	0.000218736
33.2989	-0.0270386	22.6	227	-0.000101737	dWE(1).Potential/dt < 1E-06 V/s
33.3989	-0.0270386	22.7	228	2.03462e-05
33.4989	-0.0270355	22.8	229	5.59288e-05
33.5989	-0.0270447	22.9	230	-0.00020345	dWE(1).Potential/dt < 1E-06 V/s
33.6989	-0.0270447	23	231	0.000116999
33.7989	-0.0270447	23.1	232	-3.051e-05	dWE(1).Potential/dt < 1E-06 V/s
33.8989	-0.0270477	23.2	233	-5.59226e-05	dWE(1).Potential/dt < 1E-06 V/s
33.9989	-0.0270477	23.3	234	3.55702e-05
34.0989	-0.0270508	23.4	235	-6.61547e-05	dWE(1).Potential/dt < 1E-06 V/s
34.1989	-0.0270538	23.5	236	-2.03214e-05	dWE(1).Potential/dt < 1E-06 V/s
34.2989	-0.0270538	23.6	237	2.5425e-05
34.3989	-0.0270538	23.7	238	-1.017e-05	dWE(1).Potential/dt < 1E-06 V/s
34.4989	-0.0270569	23.8	239	-5.59288e-05	dWE(1).Potential/dt < 1E-06 V/s
34.5989	-0.0270569	23.9	240	3.56136e-05
34.6989	-0.0270569	24	241	-1.01576e-05	dWE(1).Potential/dt < 1E-06 V/s
34.7989	-0.0270599	24.1	242	-5.59661e-05	dWE(1).Potential/dt < 1E-06 V/s
34.8989	-0.027063	24.2	243	-2.03028e-05	dWE(1).Potential/dt < 1E-06 V/s
34.9989	-0.027066	24.3	244	-3.05845e-05	dWE(1).Potential/dt < 1E-06 V/s
35.0989	-0.027063	24.4	245	8.14159e-05
35.1989	-0.027063	24.5	246	-4.58023e-05	dWE(1).Potential/dt < 1E-06 V/s
35.2989	-0.0270721	24.6	247	-0.000157666	dWE(1).Potential/dt < 1E-06 V/s
35.3989	-0.0270691	24.7	248	0.000162764
35.4989	-0.0270782	24.8	249	-0.000233954	dWE(1).Potential/dt < 1E-06 V/s
35.5989	-0.0270721	24.9	250	0.000228869
35.6989	-0.0270752	25	251	-0.000157679	dWE(1).Potential/dt < 1E-06 V/s
35.7989	-0.0270721	25.1	252	0.000111951
35.8989	-0.0270721	25.2	253	-4.57836e-05	dWE(1).Potential/dt < 1E-06 V/s
35.9989	-0.0270844	25.3	254	-0.000213626	dWE(1).Potential/dt < 1E-06 V/s
36.0989	-0.0270782	25.4	255	0.000254325
36.1989	-0.0270752	25.5	256	-5.59909e-05	dWE(1).Potential/dt < 1E-06 V/s
36.2989	-0.0270721	25.6	257	4.07545e-05
36.3989	-0.0270813	25.7	258	-0.000193323	dWE(1).Potential/dt < 1E-06 V/s
36.4989	-0.0270844	25.8	259	6.10511e-05
36.5989	-0.0270782	25.9	260	0.000116986
36.6989	-0.0270782	26	261	-8.13973e-05	dWE(1).Potential/dt < 1E-06 V/s
36.7989	-0.0270752	26.1	262	7.62688e-05
36.8989	-0.0270782	26.2	263	-9.1499e-05	dWE(1).Potential/dt < 1E-06 V/s
36.9989	-0.0270813	26.3	264	-1.02383e-05	dWE(1).Potential/dt < 1E-06 V/s
37.0989	-0.0270874	26.4	265	-8.64202e-05	dWE(1).Potential/dt < 1E-06 V/s
37.1989	-0.0270905	26.5	266	5.06017e-06
37.2989	-0.0270905	26.6	267	1.52861e-05
37.3989	-0.0270844	26.7	268	0.000101737
37.4989	-0.0270935	26.8	269	-0.000239057	dWE(1).Potential/dt < 1E-06 V/s
37.5989	-0.0270874	26.9	270	0.000239045
37.6989	-0.0270874	27	271	-0.0001017	dWE(1).Potential/dt < 1E-06 V/s
37.7989	-0.0270905	27.1	272	-3.56198e-05	dWE(1).Potential/dt < 1E-06 V/s
37.8989	-0.0270905	27.2	273	3.56261e-05
37.9989	-0.0270905	27.3	274	-1.017e-05	dWE(1).Potential/dt < 1E-06 V/s
38.0989	-0.0270966	27.4	275	-0.000111901	dWE(1).Potential/dt < 1E-06 V/s
38.1989	-0.0270844	27.5	276	0.000294998
38.2989	-0.0270935	27.6	277	-0.0003306	dWE(1).Potential/dt < 1E-06 V/s
38.3989	-0.0271027	27.7	278	-2.03524e-05	dWE(1).Potential/dt < 1E-06 V/s
38.4989	-0.0270966	27.8	279	0.000188176
38.5989	-0.0271027	27.9	280	-0.000213589	dWE(1).Potential/dt < 1E-06 V/s
38.6989	-0.0271027	28	281	9.15549e-05
38.7989	-0.0271088	28.1	282	-0.000132235	dWE(1).Potential/dt < 1E-06 V/s
38.8989	-0.0271027	28.2	283	0.000183097
38.9989	-0.0271027	28.3	284	-9.153e-05	dWE(1).Potential/dt < 1E-06 V/s
39.0989	-0.0271027	28.4	285	2.03586e-05
39.1989	-0.0271027	28.5	286	1.24176e-08	dWE(1).Potential/dt < 1E-06 V/s
39.2989	-0.0271088	28.6	287	-0.000111895	dWE(1).Potential/dt < 1E-06 V/s
39.3989	-0.0271088	28.7	288	7.119e-05
39.4989	-0.0271088	28.8	289	-2.03524e-05	dWE(1).Potential/dt < 1E-06 V/s
39.5989	-0.0271057	28.9	290	5.59226e-05
39.6989	-0.0271088	29	291	-9.1499e-05	dWE(1).Potential/dt < 1E-06 V/s
39.7989	-0.0271118	29.1	292	-1.02383e-05	dWE(1).Potential/dt < 1E-06 V/s
39.8989	-0.0271088	29.2	293	8.14159e-05
39.9989	-0.0271088	29.3	294	-4.58023e-05	dWE(1).Potential/dt < 1E-06 V/s
40.0989	-0.0271057	29.4	295	6.60988e-05
40.1989	-0.0271088	29.5	296	-9.1499e-05	dWE(1).Potential/dt < 1E-06 V/s
40.2989	-0.0271057	29.6	297	0.000101669
40.3989	-0.0271088	29.7	298	-0.000101669	dWE(1).Potential/dt < 1E-06 V/s
40.4989	-0.0271088	29.8	299	4.57402e-05
40.5989	-0.0271149	29.9	300	-0.000122084	dWE(1).Potential/dt < 1E-06 V/s
40.6989	-0.0271118	30	301	0.00012715
40.7989	-0.0271088	30.1	302	1.86264e-08	dWE(1).Potential/dt < 1E-06 V/s
40.8989	-0.0271118	30.2	303	-8.14345e-05	dWE(1).Potential/dt < 1E-06 V/s
40.9989	-0.0271118	30.3	304	4.57836e-05
41.0989	-0.0271118	30.4	305	-1.01886e-05	dWE(1).Potential/dt < 1E-06 V/s
41.1989	-0.0271118	30.5	306	-1.24176e-08	dWE(1).Potential/dt < 1E-06 V/s
41.2989	-0.0271149	30.6	307	-5.59412e-05	dWE(1).Potential/dt < 1E-06 V/s
41.3989	-0.0271057	30.7	308	0.000203437
41.4989	-0.0271118	30.8	309	-0.000228869	dWE(1).Potential/dt < 1E-06 V/s
41.5989	-0.0271057	30.9	310	0.000213607
41.6989	-0.0271057	31	311	-9.15362e-05	dWE(1).Potential/dt < 1E-06 V/s
41.7989	-0.0271088	31.1	312	-3.55764e-05	dWE(1).Potential/dt < 1E-06 V/s
41.8989	-0.0271118	31.2	313	-2.04083e-05	dWE(1).Potential/dt < 1E-06 V/s
41.9989	-0.027121	31.3	314	-0.000142399	dWE(1).Potential/dt < 1E-06 V/s
42.0989	-0.027121	31.4	315	9.66523e-05
42.1989	-0.027124	31.5	316	-8.64388e-05	dWE(1).Potential/dt < 1E-06 V/s
42.2989	-0.0271179	31.6	317	0.000147477
42.3989	-0.0271179	31.7	318	-8.13538e-05	dWE(1).Potential/dt < 1E-06 V/s
42.4989	-0.027121	31.8	319	-3.56198e-05	dWE(1).Potential/dt < 1E-06 V/s
42.5989	-0.0271179	31.9	320	9.16045e-05
42.6989	-0.027121	32	321	-0.000101762	dWE(1).Potential/dt < 1E-06 V/s
42.7989	-0.0271179	32.1	322	0.000101781
42.8989	-0.027121	32.2	323	-0.000101762	dWE(1).Potential/dt < 1E-06 V/s
42.9989	-0.027121	32.3	324	4.58023e-05
43.0989	-0.0271149	32.4	325	0.000101737
43.1989	-0.027124	32.5	326	-0.000239057	dWE(1).Potential/dt < 1E-06 V/s
43.2989	-0.0271301	32.6	327	1.52302e-05
43.3989	-0.027124	32.7	328	0.000152612
43.4989	-0.0271271	32.8	329	-0.000147552	dWE(1).Potential/dt < 1E-06 V/s
43.5989	-0.027124	32.9	330	0.000111932
43.6989	-0.0271332	33	331	-0.000213638	dWE(1).Potential/dt < 1E-06 V/s
43.7989	-0.0271301	33.1	332	0.00017294
43.8989	-0.027124	33.2	333	4.57899e-05
43.9989	-0.027124	33.3	334	-6.10573e-05	dWE(1).Potential/dt < 1E-06 V/s
44.0989	-0.027124	33.4	335	2.034e-05
44.1989	-0.0271271	33.5	336	-5.59847e-05	dWE(1).Potential/dt < 1E-06 V/s
44.2989	-0.0271271	33.6	337	3.56074e-05
44.3989	-0.0271332	33.7	338	-0.000122046	dWE(1).Potential/dt < 1E-06 V/s
44.4989	-0.0271362	33.8	339	1.52364e-05
44.5989	-0.0271332	33.9	340	7.12645e-05
44.6989	-0.0271362	34	341	-0.000101762	dWE(1).Potential/dt < 1E-06 V/s
44.7989	-0.0271393	34.1	342	-1.01265e-05	dWE(1).Potential/dt < 1E-06 V/s
44.8989	-0.0271362	34.2	343	8.13228e-05
44.9989	-0.0271454	34.3	344	-0.000213576	dWE(1).Potential/dt < 1E-06 V/s
45.0989	-0.0271423	34.4	345	0.000172896
45.1989	-0.0271484	34.5	346	-0.000177987	dWE(1).Potential/dt < 1E-06 V/s
45.2989	-0.0271515	34.6	347	2.54064e-05
45.3989	-0.0271423	34.7	348	0.000183122
45.4989	-0.0271484	34.8	349	-0.000228869	dWE(1).Potential/dt < 1E-06 V/s
45.5989	-0.0271484	34.9	350	0.000101731
45.6989	-0.0271484	35	351	-2.03276e-05	dWE(1).Potential/dt < 1E-06 V/s
45.7989	-0.0271454	35.1	352	5.59412e-05
45.8989	-0.0271576	35.2	353	-0.000259416	dWE(1).Potential/dt < 1E-06 V/s
45.9989	-0.0271576	35.3	354	0.000152575
46.0989	-0.0271606	35.4	355	-9.66337e-05	dWE(1).Potential/dt < 1E-06 V/s
46.1989	-0.0271545	35.5	356	0.000147509
46.2989	-0.0271576	35.6	357	-0.000137376	dWE(1).Potential/dt < 1E-06 V/s
46.3989	-0.0271576	35.7	358	5.59536e-05
46.4989	-0.0271606	35.8	359	-6.61174e-05	dWE(1).Potential/dt < 1E-06 V/s
46.5989	-0.0271637	35.9	360	-2.03276e-05	dWE(1).Potential/dt < 1E-06 V/s
46.6989	-0.0271576	36	361	0.000137301
46.7989	-0.0271667	36.1	362	-0.000249221	dWE(1).Potential/dt < 1E-06 V/s
46.8989	-0.0271698	36.2	363	7.12397e-05
46.9989	-0.0271698	36.3	364	5.05396e-06
47.0989	-0.0271698	36.4	365	-1.01762e-05	dWE(1).Potential/dt < 1E-06 V/s
47.1989	-0.0271667	36.5	366	5.59226e-05
47.2989	-0.0271637	36.6	367	2.04083e-05
47.3989	-0.0271637	36.7	368	-2.54374e-05	dWE(1).Potential/dt < 1E-06 V/s
47.4989	-0.0271637	36.8	369	1.01886e-05
47.5989	-0.0271729	36.9	370	-0.000167873	dWE(1).Potential/dt < 1E-06 V/s
47.6989	-0.0271698	37	371	0.000162782
47.7989	-0.0271759	37.1	372	-0.000178056	dWE(1).Potential/dt < 1E-06 V/s
47.8989	-0.0271667	37.2	373	0.000249233
47.9989	-0.027179	37.3	374	-0.000350902	dWE(1).Potential/dt < 1E-06 V/s
48.0989	-0.0271729	37.4	375	0.000284785
48.1989	-0.0271759	37.5	376	-0.00016783	dWE(1).Potential/dt < 1E-06 V/s
48.2989	-0.0271759	37.6	377	5.59412e-05
48.3989	-0.0271759	37.7	378	-1.017e-05	dWE(1).Potential/dt < 1E-06 V/s
48.4989	-0.0271759	37.8	379	0	dWE(1).Potential/dt < 1E-06 V/s
48.5989	-0.027182	37.9	380	-0.000111907	dWE(1).Potential/dt < 1E-06 V/s
48.6989	-0.0271881	38	381	-4.068e-05	dWE(1).Potential/dt < 1E-06 V/s
48.7989	-0.0271881	38.1	382	5.08376e-05
48.8989	-0.0271912	38.2	383	-7.62874e-05	dWE(1).Potential/dt < 1E-06 V/s
48.9989	-0.027182	38.3	384	0.000203437
49.0989	-0.0271881	38.4	385	-0.000228869	dWE(1).Potential/dt < 1E-06 V/s
49.1989	-0.0271851	38.5	386	0.000157679
49.2989	-0.0271881	38.6	387	-0.000111951	dWE(1).Potential/dt < 1E-06 V/s
49.3989	-0.0272003	38.7	388	-0.000177981	dWE(1).Potential/dt < 1E-06 V/s
49.4989	-0.027182	38.8	389	0.000467888
49.5989	-0.0271942	38.9	390	-0.00047804	dWE(1).Potential/dt < 1E-06 V/s
49.6989	-0.0271973	39	391	0.000147465
49.7989	-0.0271973	39.1	392	-5.06017e-06	dWE(1).Potential/dt < 1E-06 V/s
49.8989	-0.0271973	39.2	393	-1.017e-05	dWE(1).Potential/dt < 1E-06 V/s
49.9989	-0.0271942	39.3	394	5.59847e-05
50.0989	-0.0271973	39.4	395	-9.15859e-05	dWE(1).Potential/dt < 1E-06 V/s
50.1989	-0.0271851	39.5	396	0.000269617
50.2989	-0.0271912	39.6	397	-0.000264532	dWE(1).Potential/dt < 1E-06 V/s
50.3989	-0.0271912	39.7	398	0.000111914
50.4989	-0.0271973	39.8	399	-0.000132254	dWE(1).Potential/dt < 1E-06 V/s
50.5989	-0.0271942	39.9	400	0.000127206
50.6989	-0.0271942	40	401	-5.59536e-05	dWE(1).Potential/dt < 1E-06 V/s
50.7989	-0.0271912	40.1	402	6.61174e-05
50.8989	-0.0271942	40.2	403	-9.153e-05	dWE(1).Potential/dt < 1E-06 V/s
50.9989	-0.0271912	40.3	404	0.000101712
51.0989	-0.0271973	40.4	405	-0.000157679	dWE(1).Potential/dt < 1E-06 V/s
51.1989	-0.0271942	40.5	406	0.000137376
51.2989	-0.0271912	40.6	407	-2.48352e-08	dWE(1).Potential/dt < 1E-06 V/s
51.3989	-0.0272003	40.7	408	-0.000193261	dWE(1).Potential/dt < 1E-06 V/s
51.4989	-0.0271912	40.8	409	0.000284797
51.5989	-0.0271942	40.9	410	-0.000193242	dWE(1).Potential/dt < 1E-06 V/s
51.6989	-0.0271973	41	411	1.01514e-05
51.7989	-0.0271942	41.1	412	8.14345e-05
51.8989	-0.0271851	41.2	413	0.000122052
51.9989	-0.0271942	41.3	414	-0.000264488	dWE(1).Potential/dt < 1E-06 V/s
52.0989	-0.0271942	41.4	415	0.000137351
52.1989	-0.0271973	41.5	416	-8.64823e-05	dWE(1).Potential/dt < 1E-06 V/s
52.2989	-0.0271973	41.6	417	3.56261e-05
52.3989	-0.0271973	41.7	418	-1.017e-05	dWE(1).Potential/dt < 1E-06 V/s
52.4989	-0.0271942	41.8	419	5.59847e-05
52.5989	-0.0272003	41.9	420	-0.000147515	dWE(1).Potential/dt < 1E-06 V/s
52.6989	-0.0272034	42	421	2.53878e-05
52.7989	-0.0272003	42.1	422	7.12397e-05
52.8989	-0.0272064	42.2	423	-0.00015771	dWE(1).Potential/dt < 1E-06 V/s
52.9989	-0.0272095	42.3	424	2.54685e-05
53.0989	-0.0272003	42.4	425	0.000183104
53.1989	-0.0272095	42.5	426	-0.000284835	dWE(1).Potential/dt < 1E-06 V/s
53.2989	-0.0272064	42.6	427	0.00019328
53.3989	-0.0272003	42.7	428	4.57899e-05
53.4989	-0.0272095	42.8	429	-0.000228893	dWE(1).Potential/dt < 1E-06 V/s
53.5989	-0.0272034	42.9	430	0.000239039
53.6989	-0.0272095	43	431	-0.000213589	dWE(1).Potential/dt < 1E-06 V/s
53.7989	-0.0272034	43.1	432	0.000203412
53.8989	-0.0272125	43.2	433	-0.000259391	dWE(1).Potential/dt < 1E-06 V/s
53.9989	-0.0272064	43.3	434	0.000239076
54.0989	-0.0272095	43.4	435	-0.000157666	dWE(1).Potential/dt < 1E-06 V/s
54.1989	-0.0272125	43.5	436	-1.86264e-08	dWE(1).Potential/dt < 1E-06 V/s
54.2989	-0.0272156	43.6	437	-3.04728e-05	dWE(1).Potential/dt < 1E-06 V/s
54.3989	-0.0272064	43.7	438	0.00019323
54.4989	-0.0272125	43.8	439	-0.000228875	dWE(1).Potential/dt < 1E-06 V/s
54.5989	-0.0272095	43.9	440	0.000157722
54.6989	-0.0272156	44	441	-0.000167861	dWE(1).Potential/dt < 1E-06 V/s
54.7989	-0.0272217	44.1	442	-3.05411e-05	dWE(1).Potential/dt < 1E-06 V/s
54.8989	-0.0272156	44.2	443	0.000162782
54.9989	-0.0272125	44.3	444	-3.56447e-05	dWE(1).Potential/dt < 1E-06 V/s
55.0989	-0.0272186	44.4	445	-0.000127131	dWE(1).Potential/dt < 1E-06 V/s
55.1989	-0.0272186	44.5	446	8.13538e-05
55.2989	-0.0272217	44.6	447	-7.62874e-05	dWE(1).Potential/dt < 1E-06 V/s
55.3989	-0.0272156	44.7	448	0.000147509
55.4989	-0.0272156	44.8	449	-8.13973e-05	dWE(1).Potential/dt < 1E-06 V/s
55.5989	-0.0272186	44.9	450	-3.56385e-05	dWE(1).Potential/dt < 1E-06 V/s
55.6989	-0.0272186	45	451	3.56074e-05
55.7989	-0.0272217	45.1	452	-6.61174e-05	dWE(1).Potential/dt < 1E-06 V/s
55.8989	-0.0272217	45.2	453	3.56012e-05
55.9989	-0.0272247	45.3	454	-6.60988e-05	dWE(1).Potential/dt < 1E-06 V/s
56.0989	-0.0272217	45.4	455	9.15425e-05
56.1989	-0.0272186	45.5	456	1.01576e-05
56.2989	-0.0272308	45.6	457	-0.000249209	dWE(1).Potential/dt < 1E-06 V/s
56.3989	-0.0272247	45.7	458	0.00026447
56.4989	-0.0272339	45.8	459	-0.000279756	dWE(1).Potential/dt < 1E-06 V/s
56.5989	-0.0272308	45.9	460	0.000183128
56.6989	-0.0272278	46	461	-1.02197e-05	dWE(1).Potential/dt < 1E-06 V/s
56.7989	-0.0272217	46.1	462	8.65133e-05
56.8989	-0.0272308	46.2	463	-0.000228887	dWE(1).Potential/dt < 1E-06 V/s
56.9989	-0.0272369	46.3	464	1.52302e-05
57.0989	-0.0272308	46.4	465	0.000152612
57.1989	-0.027243	46.5	466	-0.000315388	dWE(1).Potential/dt < 1E-06 V/s
57.2989	-0.0272369	46.6	467	0.000274702
57.3989	-0.0272339	46.7	468	-5.59847e-05	dWE(1).Potential/dt < 1E-06 V/s
57.4989	-0.0272369	46.8	469	-7.11962e-05	dWE(1).Potential/dt < 1E-06 V/s
57.5989	-0.0272461	46.9	470	-0.000122065	dWE(1).Potential/dt < 1E-06 V/s
57.6989	-0.0272369	47	471	0.000264457
57.7989	-0.02724	47.1	472	-0.000193242	dWE(1).Potential/dt < 1E-06 V/s
57.8989	-0.0272461	47.2	473	-4.57774e-05	dWE(1).Potential/dt < 1E-06 V/s
57.9989	-0.0272461	47.3	474	6.102e-05
58.0989	-0.0272491	47.4	475	-7.63309e-05	dWE(1).Potential/dt < 1E-06 V/s
58.1989	-0.0272552	47.5	476	-7.62502e-05	dWE(1).Potential/dt < 1E-06 V/s
58.2989	-0.0272522	47.6	477	0.000116967
58.3989	-0.0272522	47.7	478	-5.59412e-05	dWE(1).Potential/dt < 1E-06 V/s
58.4989	-0.0272552	47.8	479	-4.57588e-05	dWE(1).Potential/dt < 1E-06 V/s
58.5989	-0.0272461	47.9	480	0.00020345
58.6989	-0.0272491	48	481	-0.000172977	dWE(1).Potential/dt < 1E-06 V/s
58.7989	-0.0272522	48.1	482	1.01948e-05
58.8989	-0.0272583	48.2	483	-8.64823e-05	dWE(1).Potential/dt < 1E-06 V/s
58.9989	-0.0272614	48.3	484	5.12846e-06
59.0989	-0.0272552	48.4	485	0.000127131
59.1989	-0.0272522	48.5	486	-2.5425e-05	dWE(1).Potential/dt < 1E-06 V/s
59.2989	-0.0272552	48.6	487	-7.11838e-05	dWE(1).Potential/dt < 1E-06 V/s
59.3989	-0.0272583	48.7	488	-1.01948e-05	dWE(1).Potential/dt < 1E-06 V/s
59.4989	-0.0272614	48.8	489	-3.04728e-05	dWE(1).Potential/dt < 1E-06 V/s
59.5989	-0.0272614	48.9	490	2.5394e-05
59.6989	-0.0272614	49	491	-1.01762e-05	dWE(1).Potential/dt < 1E-06 V/s
59.7989	-0.0272614	49.1	492	-6.20879e-09	dWE(1).Potential/dt < 1E-06 V/s
59.8989	-0.0272614	49.2	493	-6.20879e-09	dWE(1).Potential/dt < 1E-06 V/s
59.9989	-0.0272614	49.3	494	-6.20879e-09	dWE(1).Potential/dt < 1E-06 V/s
60.0989	-0.0272644	49.4	495	-5.59847e-05	dWE(1).Potential/dt < 1E-06 V/s
60.1989	-0.0272675	49.5	496	-2.03214e-05	dWE(1).Potential/dt < 1E-06 V/s
60.2989	-0.0272614	49.6	497	0.000137332
60.3989	-0.0272705	49.7	498	-0.000249233	dWE(1).Potential/dt < 1E-06 V/s
60.4989	-0.0272766	49.8	499	1.52736e-05
60.5989	-0.0272705	49.9	500	0.000152581
60.6989	-0.0272644	50	501	2.03276e-05
60.7989	-0.0272675	50.1	502	-0.000106797	dWE(1).Potential/dt < 1E-06 V/s
60.8989	-0.0272675	50.2	503	5.59412e-05
60.9989	-0.0272614	50.3	504	0.000101737
61.0989	-0.0272675	50.4	505	-0.000183135	dWE(1).Potential/dt < 1E-06 V/s
61.1989	-0.0272675	50.5	506	9.15673e-05
61.2989	-0.0272675	50.6	507	-2.03462e-05	dWE(1).Potential/dt < 1E-06 V/s
61.3989	-0.0272675	50.7	508	0	dWE(1).Potential/dt < 1E-06 V/s
61.4989	-0.0272705	50.8	509	-5.59288e-05	dWE(1).Potential/dt < 1E-06 V/s
61.5989	-0.0272705	50.9	510	3.56136e-05
61.6989	-0.0272766	51	511	-0.000122065	dWE(1).Potential/dt < 1E-06 V/s
61.7989	-0.0272736	51.1	512	0.000127119
61.8989	-0.0272797	51.2	513	-0.000167824	dWE(1).Potential/dt < 1E-06 V/s
61.9989	-0.0272827	51.3	514	2.5425e-05
62.0989	-0.0272858	51.4	515	-4.06738e-05	dWE(1).Potential/dt < 1E-06 V/s
62.1989	-0.0272827	51.5	516	8.13724e-05
62.2989	-0.0272797	51.6	517	1.01576e-05
62.3989	-0.0272888	51.7	518	-0.00019328	dWE(1).Potential/dt < 1E-06 V/s
62.4989	-0.0272797	51.8	519	0.000284835
62.5989	-0.0272827	51.9	520	-0.00019328	dWE(1).Potential/dt < 1E-06 V/s
62.6989	-0.0272827	52	521	6.61174e-05
62.7989	-0.0272797	52.1	522	4.57588e-05
62.8989	-0.0272858	52.2	523	-0.000147471	dWE(1).Potential/dt < 1E-06 V/s
62.9989	-0.0272827	52.3	524	0.000137314
63.0989	-0.0272827	52.4	525	-5.59412e-05	dWE(1).Potential/dt < 1E-06 V/s
63.1989	-0.0272858	52.5	526	-4.57588e-05	dWE(1).Potential/dt < 1E-06 V/s
63.2989	-0.0272858	52.6	527	3.56136e-05
63.3989	-0.0272888	52.7	528	-6.61361e-05	dWE(1).Potential/dt < 1E-06 V/s
63.4989	-0.0272888	52.8	529	3.56261e-05
63.5989	-0.0272827	52.9	530	0.000101737
63.6989	-0.0272858	53	531	-0.00012715	dWE(1).Potential/dt < 1E-06 V/s
63.7989	-0.0272888	53.1	532	-1.86264e-08	dWE(1).Potential/dt < 1E-06 V/s
63.8989	-0.0272919	53.2	533	-3.04728e-05	dWE(1).Potential/dt < 1E-06 V/s
63.9989	-0.0272858	53.3	534	0.000137301
64.0989	-0.0272919	53.4	535	-0.000193261	dWE(1).Potential/dt < 1E-06 V/s
64.1989	-0.0272919	53.5	536	9.15362e-05
64.2989	-0.0272858	53.6	537	9.15549e-05
64.3989	-0.0272888	53.7	538	-0.000127162	dWE(1).Potential/dt < 1E-06 V/s
64.4989	-0.0272919	53.8	539	4.34616e-08	dWE(1).Potential/dt < 1E-06 V/s
64.5989	-0.0272888	53.9	540	8.13228e-05
64.6989	-0.0272919	54	541	-0.000101669	dWE(1).Potential/dt < 1E-06 V/s
64.7989	-0.0272919	54.1	542	4.57402e-05
64.8989	-0.0272919	54.2	543	-1.01762e-05	dWE(1).Potential/dt < 1E-06 V/s
64.9989	-0.0272919	54.3	544	-6.20879e-09	dWE(1).Potential/dt < 1E-06 V/s
65.0989	-0.0272888	54.4	545	5.59226e-05
65.1989	-0.0272858	54.5	546	2.04083e-05
65.2989	-0.0272888	54.6	547	-8.14159e-05	dWE(1).Potential/dt < 1E-06 V/s
65.3989	-0.0272888	54.7	548	4.58023e-05
65.4989	-0.0272949	54.8	549	-0.000122077	dWE(1).Potential/dt < 1E-06 V/s
65.5989	-0.0272858	54.9	550	0.00023907
65.6989	-0.0272888	55	551	-0.000183128	dWE(1).Potential/dt < 1E-06 V/s
65.7989	-0.0272919	55.1	552	1.02197e-05
65.8989	-0.0272919	55.2	553	2.5394e-05
65.9989	-0.0272858	55.3	554	0.000101731
66.0989	-0.0272919	55.4	555	-0.000183091	dWE(1).Potential/dt < 1E-06 V/s
66.1989	-0.0272919	55.5	556	9.15362e-05
66.2989	-0.0272888	55.6	557	3.55764e-05
66.3989	-0.0272949	55.7	558	-0.000147477	dWE(1).Potential/dt < 1E-06 V/s
66.4989	-0.0272949	55.8	559	8.13538e-05
66.5989	-0.027298	55.9	560	-7.62874e-05	dWE(1).Potential/dt < 1E-06 V/s
66.6989	-0.027298	56	561	3.56012e-05
66.7989	-0.0272919	56.1	562	0.000101737
66.8989	-0.0272919	56.2	563	-7.12273e-05	dWE(1).Potential/dt < 1E-06 V/s
66.9989	-0.0272949	56.3	564	-3.56385e-05	dWE(1).Potential/dt < 1E-06 V/s
67.0989	-0.027298	56.4	565	-2.03214e-05	dWE(1).Potential/dt < 1E-06 V/s
67.1989	-0.0272919	56.5	566	0.000137332
67.2989	-0.027301	56.6	567	-0.000249233	dWE(1).Potential/dt < 1E-06 V/s
67.3989	-0.027298	56.7	568	0.00018311
67.4989	-0.027301	56.8	569	-0.000122046	dWE(1).Potential/dt < 1E-06 V/s
67.5989	-0.027301	56.9	570	4.57836e-05
67.6989	-0.027301	57	571	-1.01576e-05	dWE(1).Potential/dt < 1E-06 V/s
67.7989	-0.027298	57.1	572	5.59412e-05
67.8989	-0.027298	57.2	573	-3.56012e-05	dWE(1).Potential/dt < 1E-06 V/s
67.9989	-0.027301	57.3	574	-4.57588e-05	dWE(1).Potential/dt < 1E-06 V/s
68.0989	-0.0272949	57.4	575	0.000147471
68.1989	-0.0273071	57.5	576	-0.00030515	dWE(1).Potential/dt < 1E-06 V/s
68.2989	-0.0273041	57.6	577	0.000218661
68.3989	-0.0273041	57.7	578	-7.62564e-05	dWE(1).Potential/dt < 1E-06 V/s
68.4989	-0.027301	57.8	579	6.61547e-05
68.5989	-0.0273041	57.9	580	-9.15859e-05	dWE(1).Potential/dt < 1E-06 V/s
68.6989	-0.027301	58	581	0.000101781
68.7989	-0.027298	58.1	582	1.01452e-05
68.8989	-0.0273071	58.2	583	-0.000193261	dWE(1).Potential/dt < 1E-06 V/s
68.9989	-0.027301	58.3	584	0.000228869
69.0989	-0.0273041	58.4	585	-0.000157679	dWE(1).Potential/dt < 1E-06 V/s
69.1989	-0.0273071	58.5	586	4.34616e-08	dWE(1).Potential/dt < 1E-06 V/s
69.2989	-0.0273102	58.6	587	-3.05845e-05	dWE(1).Potential/dt < 1E-06 V/s
69.3989	-0.0273071	58.7	588	8.14159e-05
69.4989	-0.0273132	58.8	589	-0.00015771	dWE(1).Potential/dt < 1E-06 V/s
69.5989	-0.0273163	58.9	590	2.54685e-05
69.6989	-0.0273041	59	591	0.000239032
69.7989	-0.0273102	59.1	592	-0.00026447	dWE(1).Potential/dt < 1E-06 V/s
69.8989	-0.0273102	59.2	593	0.00011187
69.9989	-0.0273132	59.3	594	-7.62874e-05	dWE(1).Potential/dt < 1E-06 V/s
70.0989	-0.0273102	59.4	595	9.153e-05
70.1989	-0.0273071	59.5	596	1.01948e-05
70.2989	-0.0273132	59.6	597	-0.000137363	dWE(1).Potential/dt < 1E-06 V/s
70.3989	-0.0273102	59.7	598	0.000137326
70.4989	-0.0273102	59.8	599	-5.59599e-05	dWE(1).Potential/dt < 1E-06 V/s
70.5989	-0.0273163	59.9	600	-0.0001017	dWE(1).Potential/dt < 1E-06 V/s
70.6989	-0.0273102	60	601	0.000183072
70.7989	-0.0273132	60.1	602	-0.000147484	dWE(1).Potential/dt < 1E-06 V/s
70.8989	-0.0273132	60.2	603	5.59412e-05
70.9989	-0.0273163	60.3	604	-6.60988e-05	dWE(1).Potential/dt < 1E-06 V/s
71.0989	-0.0273163	60.4	605	3.56136e-05
71.1989	-0.0273163	60.5	606	-1.01576e-05	dWE(1).Potential/dt < 1E-06 V/s
71.2989	-0.0273132	60.6	607	5.59412e-05
71.3989	-0.0273193	60.7	608	-0.000147509	dWE(1).Potential/dt < 1E-06 V/s
71.4989	-0.0273193	60.8	609	8.13973e-05
71.5989	-0.0273071	60.9	610	0.000203475
71.6989	-0.0273163	61	611	-0.000310284	dWE(1).Potential/dt < 1E-06 V/s
71.7989	-0.0273163	61.1	612	0.000147527
71.8989	-0.0273132	61.2	613	2.5425e-05
71.9989	-0.0273315	61.3	614	-0.000371273	dWE(1).Potential/dt < 1E-06 V/s
72.0989	-0.0273193	61.4	615	0.000447567
72.1989	-0.0273224	61.5	616	-0.000259354	dWE(1).Potential/dt < 1E-06 V/s
72.2989	-0.0273254	61.6	617	2.02779e-05
72.3989	-0.0273224	61.7	618	8.14159e-05
72.4989	-0.0273193	61.8	619	1.01265e-05
72.5989	-0.0273254	61.9	620	-0.000137301	dWE(1).Potential/dt < 1E-06 V/s
72.6989	-0.0273315	62	621	-3.05038e-05	dWE(1).Potential/dt < 1E-06 V/s
72.7989	-0.0273285	62.1	622	0.000106797
72.8989	-0.0273315	62.2	623	-0.00011187	dWE(1).Potential/dt < 1E-06 V/s
72.9989	-0.0273315	62.3	624	4.57836e-05
73.0989	-0.0273285	62.4	625	4.57712e-05
73.1989	-0.0273346	62.5	626	-0.000147509	dWE(1).Potential/dt < 1E-06 V/s
73.2989	-0.0273254	62.6	627	0.000249233
73.3989	-0.0273315	62.7	628	-0.000239039	dWE(1).Potential/dt < 1E-06 V/s
73.4989	-0.0273346	62.8	629	4.57526e-05
73.5989	-0.0273315	62.9	630	7.12645e-05
73.6989	-0.0273376	63	631	-0.000157691	dWE(1).Potential/dt < 1E-06 V/s
73.7989	-0.0273407	63.1	632	2.53878e-05
73.8989	-0.0273346	63.2	633	0.000127169
73.9989	-0.0273407	63.3	634	-0.000193274	dWE(1).Potential/dt < 1E-06 V/s
74.0989	-0.0273407	63.4	635	9.153e-05
74.1989	-0.02734375	63.5	636	-7.62874e-05	dWE(1).Potential/dt < 1E-06 V/s
74.2989	-0.02734375	63.6	637	3.56012e-05
74.3989	-0.02734375	63.7	638	-1.017e-05	dWE(1).Potential/dt < 1E-06 V/s
74.4989	-0.0273468	63.8	639	-5.59288e-05	dWE(1).Potential/dt < 1E-06 V/s
74.5989	-0.02734375	63.9	640	9.15425e-05
74.6989	-0.02734375	64	641	-4.57712e-05	dWE(1).Potential/dt < 1E-06 V/s
74.7989	-0.0273529	64.1	642	-0.000157666	dWE(1).Potential/dt < 1E-06 V/s
74.8989	-0.0273468	64.2	643	0.000218699
74.9989	-0.0273468	64.3	644	-0.0001017	dWE(1).Potential/dt < 1E-06 V/s
75.0989	-0.0273499	64.4	645	-3.56198e-05	dWE(1).Potential/dt < 1E-06 V/s
75.1989	-0.027356	64.5	646	-7.62812e-05	dWE(1).Potential/dt < 1E-06 V/s
75.2989	-0.0273468	64.6	647	0.000228893
75.3989	-0.0273468	64.7	648	-0.00012715	dWE(1).Potential/dt < 1E-06 V/s
75.4989	-0.027356	64.8	649	-0.000137351	dWE(1).Potential/dt < 1E-06 V/s
75.5989	-0.027359	64.9	650	5.08749e-05
75.6989	-0.0273468	65	651	0.000228893
75.7989	-0.0273468	65.1	652	-0.000152575	dWE(1).Potential/dt < 1E-06 V/s
75.8989	-0.027356	65.2	653	-0.000127181	dWE(1).Potential/dt < 1E-06 V/s
75.9989	-0.0273529	65.3	654	0.000162782
76.0989	-0.0273529	65.4	655	-6.61485e-05	dWE(1).Potential/dt < 1E-06 V/s
76.1989	-0.027356	65.5	656	-4.58085e-05	dWE(1).Potential/dt < 1E-06 V/s
76.2989	-0.0273499	65.6	657	0.000147515
76.3989	-0.027359	65.7	658	-0.000249202	dWE(1).Potential/dt < 1E-06 V/s
76.4989	-0.027359	65.8	659	0.000127144
76.5989	-0.027359	65.9	660	-3.05162e-05	dWE(1).Potential/dt < 1E-06 V/s
76.6989	-0.027359	66	661	0	dWE(1).Potential/dt < 1E-06 V/s
76.7989	-0.0273529	66.1	662	0.000111907
76.8989	-0.027356	66.2	663	-0.000127206	dWE(1).Potential/dt < 1E-06 V/s
76.9989	-0.0273499	66.3	664	0.000167861
77.0989	-0.027359	66.4	665	-0.000249202	dWE(1).Potential/dt < 1E-06 V/s
77.1989	-0.027359	66.5	666	0.000127144
77.2989	-0.027359	66.6	667	-3.05162e-05	dWE(1).Potential/dt < 1E-06 V/s
77.3989	-0.0273621	66.7	668	-5.59288e-05	dWE(1).Potential/dt < 1E-06 V/s
77.4989	-0.027359	66.8	669	9.15425e-05
77.5989	-0.0273621	66.9	670	-0.0001017	dWE(1).Potential/dt < 1E-06 V/s
77.6989	-0.0273682	67	671	-6.61236e-05	dWE(1).Potential/dt < 1E-06 V/s
77.7989	-0.027359	67.1	672	0.000228856
77.8989	-0.027356	67.2	673	-7.12149e-05	dWE(1).Potential/dt < 1E-06 V/s
77.9989	-0.027356	67.3	674	-5.09742e-06	dWE(1).Potential/dt < 1E-06 V/s
78.0989	-0.0273651	67.4	675	-0.000157679	dWE(1).Potential/dt < 1E-06 V/s
78.1989	-0.0273621	67.5	676	0.000162807
78.2989	-0.0273621	67.6	677	-6.61236e-05	dWE(1).Potential/dt < 1E-06 V/s
78.3989	-0.0273621	67.7	678	1.01886e-05
78.4989	-0.0273651	67.8	679	-5.59661e-05	dWE(1).Potential/dt < 1E-06 V/s
78.5989	-0.0273682	67.9	680	-2.03028e-05	dWE(1).Potential/dt < 1E-06 V/s
78.6989	-0.0273682	68	681	2.5394e-05
78.7989	-0.0273712	68.1	682	-6.61547e-05	dWE(1).Potential/dt < 1E-06 V/s
78.8989	-0.0273651	68.2	683	0.000147515
78.9989	-0.0273712	68.3	684	-0.000193274	dWE(1).Potential/dt < 1E-06 V/s
79.0989	-0.0273651	68.4	685	0.000203437
79.1989	-0.0273651	68.5	686	-9.15362e-05	dWE(1).Potential/dt < 1E-06 V/s
79.2989	-0.0273773	68.6	687	-0.000203412	dWE(1).Potential/dt < 1E-06 V/s
79.3989	-0.0273712	68.7	688	0.000254269
79.4989	-0.0273773	68.8	689	-0.000223759	dWE(1).Potential/dt < 1E-06 V/s
79.5989	-0.0273712	68.9	690	0.000203412
79.6989	-0.0273743	69	691	-0.000147484	dWE(1).Potential/dt < 1E-06 V/s
79.7989	-0.0273773	69.1	692	1.24176e-08	dWE(1).Potential/dt < 1E-06 V/s
79.8989	-0.0273743	69.2	693	8.13724e-05
79.9989	-0.0273651	69.3	694	0.000122065
80.0989	-0.0273773	69.4	695	-0.000320386	dWE(1).Potential/dt < 1E-06 V/s
80.1989	-0.0273743	69.5	696	0.000228856
80.2989	-0.0273773	69.6	697	-0.000132216	dWE(1).Potential/dt < 1E-06 V/s
80.3989	-0.0273773	69.7	698	4.57836e-05
80.4989	-0.0273773	69.8	699	-1.01576e-05	dWE(1).Potential/dt < 1E-06 V/s
80.5989	-0.0273834	69.9	700	-0.000111895	dWE(1).Potential/dt < 1E-06 V/s
80.6989	-0.0273804	70	701	0.000127119
80.7989	-0.0273804	70.1	702	-5.59164e-05	dWE(1).Potential/dt < 1E-06 V/s
80.8989	-0.0273743	70.2	703	0.000122084
[...]
96.3989	-0.0274323	85.7	858	5.59288e-05
96.4989	-0.0274414	85.8	859	-0.00020345	dWE(1).Potential/dt < 1E-06 V/s
96.5989	-0.0274414	85.9	860	0.000116999
96.6989	-0.0274353	86	861	8.13973e-05
96.7989	-0.0274414	86.1	862	-0.000183128	dWE(1).Potential/dt < 1E-06 V/s
96.8989	-0.0274475	86.2	863	-2.03338e-05	dWE(1).Potential/dt < 1E-06 V/s
96.9989	-0.0274506	86.3	864	-5.09121e-06	dWE(1).Potential/dt < 1E-06 V/s
97.0989	-0.0274445	86.4	865	0.000127162
97.1989	-0.0274414	86.5	866	-2.54685e-05	dWE(1).Potential/dt < 1E-06 V/s
97.2989	-0.0274384	86.6	867	4.07545e-05
97.3989	-0.0274353	86.7	868	3.04914e-05
97.4989	-0.0274475	86.8	869	-0.00024924	dWE(1).Potential/dt < 1E-06 V/s
97.5989	-0.0274445	86.9	870	0.000208553
97.6989	-0.0274445	87	871	-7.63185e-05	dWE(1).Potential/dt < 1E-06 V/s
97.7989	-0.0274414	87.1	872	6.60988e-05
97.8989	-0.0274597	87.2	873	-0.000371242	dWE(1).Potential/dt < 1E-06 V/s
97.9989	-0.0274475	87.3	874	0.000447524
98.0989	-0.0274506	87.4	875	-0.000259372	dWE(1).Potential/dt < 1E-06 V/s
98.1989	-0.0274475	87.5	876	0.000132216
98.2989	-0.0274475	87.6	877	-4.57836e-05	dWE(1).Potential/dt < 1E-06 V/s
98.3989	-0.0274506	87.7	878	-4.57712e-05	dWE(1).Potential/dt < 1E-06 V/s
98.4989	-0.0274536	87.8	879	-2.03276e-05	dWE(1).Potential/dt < 1E-06 V/s
98.5989	-0.0274445	87.9	880	0.00019328
98.6989	-0.0274475	88	881	-0.000172977	dWE(1).Potential/dt < 1E-06 V/s
98.7989	-0.0274506	88.1	882	1.01948e-05
98.8989	-0.0274597	88.2	883	-0.000142411	dWE(1).Potential/dt < 1E-06 V/s
98.9989	-0.0274506	88.3	884	0.000264457
99.0989	-0.0274445	88.4	885	-2.54064e-05	dWE(1).Potential/dt < 1E-06 V/s
99.1989	-0.0274445	88.5	886	-4.07111e-05	dWE(1).Potential/dt < 1E-06 V/s
99.2989	-0.0274567	88.6	887	-0.000203475	dWE(1).Potential/dt < 1E-06 V/s
99.3989	-0.0274536	88.7	888	0.000198427
99.4989	-0.0274567	88.8	889	-0.000132278	dWE(1).Potential/dt < 1E-06 V/s
99.5989	-0.0274597	88.9	890	-1.01265e-05	dWE(1).Potential/dt < 1E-06 V/s
99.6989	-0.0274567	89	891	8.13228e-05
99.7989	-0.0274567	89.1	892	-4.57402e-05	dWE(1).Potential/dt < 1E-06 V/s
99.8989	-0.0274536	89.2	893	6.61547e-05
99.9989	-0.0274567	89.3	894	-9.15859e-05	dWE(1).Potential/dt < 1E-06 V/s
100.099	-0.0274567	89.4	895	4.58023e-05
100.199	-0.0274536	89.5	896	4.58085e-05
100.299	-0.0274658	89.6	897	-0.000259422	dWE(1).Potential/dt < 1E-06 V/s
100.399	-0.0274567	89.7	898	0.00032043
100.499	-0.0274658	89.8	899	-0.00031532	dWE(1).Potential/dt < 1E-06 V/s
100.599	-0.027475	89.9	900	-3.05224e-05	dWE(1).Potential/dt < 1E-06 V/s
100.699	-0.0274658	90	901	0.000244111
100.799	-0.0274689	90.1	902	-0.000193242	dWE(1).Potential/dt < 1E-06 V/s
100.899	-0.027478	90.2	903	-0.000101756	dWE(1).Potential/dt < 1E-06 V/s
100.999	-0.0274658	90.3	904	0.000320448
101.099	-0.0274658	90.4	905	-0.00017294	dWE(1).Potential/dt < 1E-06 V/s
101.199	-0.0274658	90.5	906	4.06924e-05
101.299	-0.0274658	90.6	907	0	dWE(1).Potential/dt < 1E-06 V/s
101.399	-0.0274689	90.7	908	-5.59288e-05	dWE(1).Potential/dt < 1E-06 V/s
101.499	-0.0274689	90.8	909	3.56136e-05
101.599	-0.0274689	90.9	910	-1.01576e-05	dWE(1).Potential/dt < 1E-06 V/s
101.699	-0.0274689	91	911	1.24176e-08	dWE(1).Potential/dt < 1E-06 V/s
101.799	-0.0274689	91.1	912	1.24176e-08	dWE(1).Potential/dt < 1E-06 V/s
101.899	-0.0274658	91.2	913	5.59412e-05
101.999	-0.0274719	91.3	914	-0.000147509	dWE(1).Potential/dt < 1E-06 V/s
102.099	-0.0274719	91.4	915	8.13973e-05
102.199	-0.0274628	91.5	916	0.000147496
102.299	-0.0274658	91.6	917	-0.000162764	dWE(1).Potential/dt < 1E-06 V/s
102.399	-0.0274719	91.7	918	-4.57899e-05	dWE(1).Potential/dt < 1E-06 V/s
102.499	-0.0274689	91.8	919	0.000117036
102.599	-0.027475	91.9	920	-0.000167861	dWE(1).Potential/dt < 1E-06 V/s
102.699	-0.0274719	92	921	0.000137295
102.799	-0.027475	92.1	922	-0.000111845	dWE(1).Potential/dt < 1E-06 V/s
102.899	-0.0274719	92.2	923	0.000101669
102.999	-0.027478	92.3	924	-0.000157647	dWE(1).Potential/dt < 1E-06 V/s
103.099	-0.027475	92.4	925	0.000137332
103.199	-0.0274719	92.5	926	-4.34616e-08	dWE(1).Potential/dt < 1E-06 V/s
103.299	-0.0274719	92.6	927	-2.5394e-05	dWE(1).Potential/dt < 1E-06 V/s
103.399	-0.027475	92.7	928	-4.57526e-05	dWE(1).Potential/dt < 1E-06 V/s
103.499	-0.027475	92.8	929	3.55702e-05
103.599	-0.027475	92.9	930	-1.01762e-05	dWE(1).Potential/dt < 1E-06 V/s
103.699	-0.027475	93	931	-6.20879e-09	dWE(1).Potential/dt < 1E-06 V/s
103.799	-0.0274811	93.1	932	-0.000111914	dWE(1).Potential/dt < 1E-06 V/s
103.899	-0.027478	93.2	933	0.00012715
103.999	-0.0274811	93.3	934	-0.000111889	dWE(1).Potential/dt < 1E-06 V/s
104.099	-0.027478	93.4	935	0.0001017
104.199	-0.027475	93.5	936	1.01948e-05
104.299	-0.027478	93.6	937	-8.14345e-05	dWE(1).Potential/dt < 1E-06 V/s
104.399	-0.0274841	93.7	938	-6.6074e-05	dWE(1).Potential/dt < 1E-06 V/s
104.499	-0.027478	93.8	939	0.000172896
104.599	-0.0274841	93.9	940	-0.000203412	dWE(1).Potential/dt < 1E-06 V/s
104.699	-0.0274811	94	941	0.000147484
104.799	-0.0274841	94.1	942	-0.00011187	dWE(1).Potential/dt < 1E-06 V/s
104.899	-0.0274811	94.2	943	0.000101712
104.999	-0.027478	94.3	944	1.01576e-05
105.099	-0.0274841	94.4	945	-0.000137301	dWE(1).Potential/dt < 1E-06 V/s
105.199	-0.0274811	94.5	946	0.000137314
105.299	-0.0274841	94.6	947	-0.00011187	dWE(1).Potential/dt < 1E-06 V/s
105.399	-0.027478	94.7	948	0.000157641
105.499	-0.027475	94.8	949	-2.54064e-05	dWE(1).Potential/dt < 1E-06 V/s
105.599	-0.0274872	94.9	950	-0.000239101	dWE(1).Potential/dt < 1E-06 V/s
105.699	-0.0274811	95	951	0.000264532
105.799	-0.0274841	95.1	952	-0.000167842	dWE(1).Potential/dt < 1E-06 V/s
105.899	-0.0274811	95.2	953	0.000111889
105.999	-0.0274841	95.3	954	-0.0001017	dWE(1).Potential/dt < 1E-06 V/s
106.099	-0.0274811	95.4	955	0.000101712
106.199	-0.0274933	95.5	956	-0.000269586	dWE(1).Potential/dt < 1E-06 V/s
106.299	-0.0274872	95.6	957	0.000264482
106.399	-0.0274902	95.7	958	-0.000167811	dWE(1).Potential/dt < 1E-06 V/s
106.499	-0.0274902	95.8	959	5.59164e-05
106.599	-0.0274902	95.9	960	-1.01762e-05	dWE(1).Potential/dt < 1E-06 V/s
106.699	-0.0274933	96	961	-5.59847e-05	dWE(1).Potential/dt < 1E-06 V/s
106.799	-0.0274902	96.1	962	9.15859e-05
106.899	-0.0274933	96.2	963	-0.000101781	dWE(1).Potential/dt < 1E-06 V/s
106.999	-0.0274902	96.3	964	0.000101762
107.099	-0.0274872	96.4	965	1.01265e-05
107.199	-0.0274872	96.5	966	-2.5394e-05	dWE(1).Potential/dt < 1E-06 V/s
107.299	-0.0274933	96.6	967	-0.000101731	dWE(1).Potential/dt < 1E-06 V/s
107.399	-0.0274872	96.7	968	0.000183091
107.499	-0.0274933	96.8	969	-0.000203444	dWE(1).Potential/dt < 1E-06 V/s
107.599	-0.0274902	96.9	970	0.000147509
107.699	-0.0274933	97	971	-0.000111951	dWE(1).Potential/dt < 1E-06 V/s
107.799	-0.0274933	97.1	972	4.57836e-05
107.899	-0.0274963	97.2	973	-6.61174e-05	dWE(1).Potential/dt < 1E-06 V/s
107.999	-0.0274994	97.3	974	-2.03276e-05	dWE(1).Potential/dt < 1E-06 V/s
108.099	-0.0274963	97.4	975	8.13724e-05
108.199	-0.0275024	97.5	976	-0.000157679	dWE(1).Potential/dt < 1E-06 V/s
108.299	-0.0274933	97.6	977	0.000249233
108.399	-0.0274994	97.7	978	-0.000239039	dWE(1).Potential/dt < 1E-06 V/s
108.499	-0.0275024	97.8	979	4.57526e-05
108.599	-0.0274963	97.9	980	0.000127193
108.699	-0.0275024	98	981	-0.000193305	dWE(1).Potential/dt < 1E-06 V/s
108.799	-0.0274994	98.1	982	0.000147552
108.899	-0.0274994	98.2	983	-5.59536e-05	dWE(1).Potential/dt < 1E-06 V/s
108.999	-0.0275024	98.3	984	-4.57899e-05	dWE(1).Potential/dt < 1E-06 V/s
109.099	-0.0275055	98.4	985	-2.03028e-05	dWE(1).Potential/dt < 1E-06 V/s
109.199	-0.0275055	98.5	986	2.5394e-05
109.299	-0.0274963	98.6	987	0.00015766
109.399	-0.0274994	98.7	988	-0.000162726	dWE(1).Potential/dt < 1E-06 V/s
109.499	-0.0274994	98.8	989	6.61299e-05
109.599	-0.0275055	98.9	990	-0.000122065	dWE(1).Potential/dt < 1E-06 V/s
109.699	-0.0275116	99	991	-4.07173e-05	dWE(1).Potential/dt < 1E-06 V/s
109.799	-0.0275085	99.1	992	0.000106804
109.899	-0.0275055	99.2	993	1.86264e-08	dWE(1).Potential/dt < 1E-06 V/s
109.999	-0.0275024	99.3	994	3.04728e-05
110.099	-0.0275116	99.4	995	-0.00019323	dWE(1).Potential/dt < 1E-06 V/s
110.199	-0.0275024	99.5	996	0.000284804
110.299	-0.0275055	99.6	997	-0.000193236	dWE(1).Potential/dt < 1E-06 V/s
110.399	-0.0275085	99.7	998	1.01079e-05
110.499	-0.0275085	99.8	999	2.54374e-05
110.599	-0.0275116	99.9	1000	-6.61174e-05	dWE(1).Potential/dt < 1E-06 V/s
110.699	-0.0275085	100	1001	9.153e-05
110.799	-0.0275085	100.1	1002	-4.57836e-05	dWE(1).Potential/dt < 1E-06 V/s
110.899	-0.0275085	100.2	1003	1.01576e-05
110.999	-0.0275055	100.3	1004	5.59661e-05
111.099	-0.0275116	100.4	1005	-0.000147533	dWE(1).Potential/dt < 1E-06 V/s
111.199	-0.0275085	100.5	1006	0.000137326
111.299	-0.0275116	100.6	1007	-0.000111889	dWE(1).Potential/dt < 1E-06 V/s
111.399	-0.0275146	100.7	1008	-1.01576e-05	dWE(1).Potential/dt < 1E-06 V/s
111.499	-0.0275116	100.8	1009	8.13724e-05
111.599	-0.0275116	100.9	1010	-4.57712e-05	dWE(1).Potential/dt < 1E-06 V/s
111.699	-0.0275116	101	1011	1.017e-05
111.799	-0.0275055	101.1	1012	0.000111907
111.899	-0.0275116	101.2	1013	-0.000183135	dWE(1).Potential/dt < 1E-06 V/s
111.999	-0.0275177	101.3	1014	-2.034e-05	dWE(1).Potential/dt < 1E-06 V/s
112.099	-0.0275085	101.4	1015	0.000218717
112.199	-0.0275085	101.5	1016	-0.000127181	dWE(1).Potential/dt < 1E-06 V/s
112.299	-0.0275085	101.6	1017	3.05038e-05
112.399	-0.0275116	101.7	1018	-5.59412e-05	dWE(1).Potential/dt < 1E-06 V/s
112.499	-0.0275177	101.8	1019	-7.63061e-05	dWE(1).Potential/dt < 1E-06 V/s
112.599	-0.0275146	101.9	1020	0.000117036
112.699	-0.0275146	102	1021	-5.59536e-05	dWE(1).Potential/dt < 1E-06 V/s
112.799	-0.0275116	102.1	1022	6.61174e-05
112.899	-0.0275177	102.2	1023	-0.000147509	dWE(1).Potential/dt < 1E-06 V/s
112.999	-0.0275238	102.3	1024	-3.051e-05	dWE(1).Potential/dt < 1E-06 V/s
113.099	-0.0275208	102.4	1025	0.000106816
113.199	-0.0275146	102.5	1026	5.5935e-05
113.299	-0.0275208	102.6	1027	-0.000172915	dWE(1).Potential/dt < 1E-06 V/s
113.399	-0.0275238	102.7	1028	3.55578e-05
113.499	-0.0275238	102.8	1029	1.52612e-05
113.599	-0.0275208	102.9	1030	4.57899e-05
113.699	-0.0275269	103	1031	-0.000147533	dWE(1).Potential/dt < 1E-06 V/s
113.799	-0.0275238	103.1	1032	0.000137326
113.899	-0.0275208	103.2	1033	1.86264e-08	dWE(1).Potential/dt < 1E-06 V/s
113.999	-0.0275238	103.3	1034	-8.14345e-05	dWE(1).Potential/dt < 1E-06 V/s
114.099	-0.0275208	103.4	1035	0.000101762
114.199	-0.0275269	103.5	1036	-0.00015771	dWE(1).Potential/dt < 1E-06 V/s
114.299	-0.0275269	103.6	1037	8.13973e-05
114.399	-0.0275238	103.7	1038	3.55826e-05
114.499	-0.0275208	103.8	1039	2.03648e-05
114.599	-0.0275269	103.9	1040	-0.000137363	dWE(1).Potential/dt < 1E-06 V/s
114.699	-0.0275208	104	1041	0.000193305
114.799	-0.0275269	104.1	1042	-0.000203481	dWE(1).Potential/dt < 1E-06 V/s
114.899	-0.0275269	104.2	1043	9.15673e-05
114.999	-0.0275269	104.3	1044	-2.03462e-05	dWE(1).Potential/dt < 1E-06 V/s
115.099	-0.0275299	104.4	1045	-5.59288e-05	dWE(1).Potential/dt < 1E-06 V/s
115.199	-0.027533	104.5	1046	-2.03648e-05	dWE(1).Potential/dt < 1E-06 V/s
115.299	-0.027536	104.6	1047	-3.04728e-05	dWE(1).Potential/dt < 1E-06 V/s
115.399	-0.027536	104.7	1048	2.5394e-05
115.499	-0.0275299	104.8	1049	0.000101731
115.599	-0.0275299	104.9	1050	-7.11838e-05	dWE(1).Potential/dt < 1E-06 V/s
115.699	-0.027536	105	1051	-9.15487e-05	dWE(1).Potential/dt < 1E-06 V/s
115.799	-0.0275391	105.1	1052	1.52115e-05
115.899	-0.0275421	105.2	1053	-4.06676e-05	dWE(1).Potential/dt < 1E-06 V/s
115.999	-0.0275299	105.3	1054	0.00024924
116.099	-0.0275299	105.4	1055	-0.000152575	dWE(1).Potential/dt < 1E-06 V/s
116.199	-0.0275269	105.5	1056	9.66337e-05
116.299	-0.0275391	105.6	1057	-0.000259416	dWE(1).Potential/dt < 1E-06 V/s
116.399	-0.027533	105.7	1058	0.000264482
116.499	-0.027536	105.8	1059	-0.000167811	dWE(1).Potential/dt < 1E-06 V/s
116.599	-0.027536	105.9	1060	5.59164e-05
116.699	-0.0275299	106	1061	0.000101731
116.799	-0.027536	106.1	1062	-0.000183091	dWE(1).Potential/dt < 1E-06 V/s
116.899	-0.0275452	106.2	1063	-7.62999e-05	dWE(1).Potential/dt < 1E-06 V/s
116.999	-0.0275421	106.3	1064	0.000142417
117.099	-0.0275391	106.4	1065	-1.01886e-05	dWE(1).Potential/dt < 1E-06 V/s
117.199	-0.0275391	106.5	1066	-2.54436e-05	dWE(1).Potential/dt < 1E-06 V/s
117.299	-0.027536	106.6	1067	6.61361e-05
117.399	-0.0275391	106.7	1068	-9.16045e-05	dWE(1).Potential/dt < 1E-06 V/s
117.499	-0.0275452	106.8	1069	-6.6074e-05	dWE(1).Potential/dt < 1E-06 V/s
117.599	-0.0275391	106.9	1070	0.000172896
117.699	-0.027533	107	1071	2.03524e-05
117.799	-0.0275421	107.1	1072	-0.000218686	dWE(1).Potential/dt < 1E-06 V/s
117.899	-0.0275421	107.2	1073	0.000127144
117.999	-0.0275421	107.3	1074	-3.05162e-05	dWE(1).Potential/dt < 1E-06 V/s
118.099	-0.0275421	107.4	1075	0	dWE(1).Potential/dt < 1E-06 V/s
118.199	-0.0275421	107.5	1076	0	dWE(1).Potential/dt < 1E-06 V/s
118.299	-0.0275391	107.6	1077	5.59288e-05
118.399	-0.0275482	107.7	1078	-0.00020345	dWE(1).Potential/dt < 1E-06 V/s
118.499	-0.0275482	107.8	1079	0.000116999
118.599	-0.0275482	107.9	1080	-3.051e-05	dWE(1).Potential/dt < 1E-06 V/s
118.699	-0.0275421	108	1081	0.000111914
118.799	-0.0275482	108.1	1082	-0.000183128	dWE(1).Potential/dt < 1E-06 V/s
118.899	-0.0275482	108.2	1083	9.15735e-05
118.999	-0.0275421	108.3	1084	9.15673e-05
119.099	-0.0275452	108.4	1085	-0.00012715	dWE(1).Potential/dt < 1E-06 V/s
119.199	-0.0275543	108.5	1086	-0.000111926	dWE(1).Potential/dt < 1E-06 V/s
119.299	-0.0275482	108.6	1087	0.000208541
119.399	-0.0275482	108.7	1088	-0.000101712	dWE(1).Potential/dt < 1E-06 V/s
119.499	-0.0275482	108.8	1089	2.03524e-05
119.599	-0.0275513	108.9	1090	-5.59226e-05	dWE(1).Potential/dt < 1E-06 V/s
119.699	-0.0275513	109	1091	3.55702e-05
119.799	-0.0275543	109.1	1092	-6.61547e-05	dWE(1).Potential/dt < 1E-06 V/s
119.899	-0.0275482	109.2	1093	0.000147515
119.999	-0.0275543	109.3	1094	-0.000193274	dWE(1).Potential/dt < 1E-06 V/s
120.099	-0.0275452	109.4	1095	0.000259416
120.199	-0.0275543	109.5	1096	-0.000295036	dWE(1).Potential/dt < 1E-06 V/s
120.299	-0.0275513	109.6	1097	0.000193305
120.399	-0.0275543	109.7	1098	-0.000122127	dWE(1).Potential/dt < 1E-06 V/s
120.499	-0.0275482	109.8	1099	0.000157691
120.599	-0.0275513	109.9	1100	-0.000137295	dWE(1).Potential/dt < 1E-06 V/s
120.699	-0.0275543	110	1101	-6.20879e-08	dWE(1).Potential/dt < 1E-06 V/s
120.799	-0.0275604	110.1	1102	-8.64202e-05	dWE(1).Potential/dt < 1E-06 V/s
120.899	-0.0275543	110.2	1103	0.000172896
120.999	-0.0275574	110.3	1104	-0.000147484	dWE(1).Potential/dt < 1E-06 V/s
121.099	-0.0275574	110.4	1105	5.59412e-05
121.199	-0.0275513	110.5	1106	0.000101737
121.299	-0.0275574	110.6	1107	-0.000183135	dWE(1).Potential/dt < 1E-06 V/s
121.399	-0.0275574	110.7	1108	9.15673e-05
121.499	-0.0275574	110.8	1109	-2.03462e-05	dWE(1).Potential/dt < 1E-06 V/s
121.599	-0.0275543	110.9	1110	5.59288e-05
121.699	-0.0275543	111	1111	-3.56136e-05	dWE(1).Potential/dt < 1E-06 V/s
121.799	-0.0275543	111.1	1112	1.01576e-05
121.899	-0.0275543	111.2	1113	-1.24176e-08	dWE(1).Potential/dt < 1E-06 V/s
121.999	-0.0275635	111.3	1114	-0.000167849	dWE(1).Potential/dt < 1E-06 V/s
122.099	-0.0275635	111.4	1115	0.000106828
122.199	-0.0275543	111.5	1116	0.000137326
122.299	-0.0275604	111.6	1117	-0.000218692	dWE(1).Potential/dt < 1E-06 V/s
122.399	-0.0275635	111.7	1118	4.57526e-05
122.499	-0.0275574	111.8	1119	0.000127193
122.599	-0.0275604	111.9	1120	-0.000137326	dWE(1).Potential/dt < 1E-06 V/s
122.699	-0.0275635	112	1121	-1.86264e-08	dWE(1).Potential/dt < 1E-06 V/s
122.799	-0.0275574	112.1	1122	0.000137363
122.899	-0.0275543	112.2	1123	-2.54685e-05	dWE(1).Potential/dt < 1E-06 V/s
122.999	-0.0275665	112.3	1124	-0.000239032	dWE(1).Potential/dt < 1E-06 V/s
123.099	-0.0275635	112.4	1125	0.000208491
123.199	-0.0275604	112.5	1126	-2.02779e-05	dWE(1).Potential/dt < 1E-06 V/s
123.299	-0.0275635	112.6	1127	-8.14159e-05	dWE(1).Potential/dt < 1E-06 V/s
123.399	-0.0275696	112.7	1128	-6.6105e-05	dWE(1).Potential/dt < 1E-06 V/s
123.499	-0.0275665	112.8	1129	0.000116986
123.599	-0.0275696	112.9	1130	-0.000111951	dWE(1).Potential/dt < 1E-06 V/s
123.699	-0.0275635	113	1131	0.000157691
123.799	-0.0275635	113.1	1132	-8.13662e-05	dWE(1).Potential/dt < 1E-06 V/s
123.899	-0.0275635	113.2	1133	2.03524e-05
123.999	-0.0275696	113.3	1134	-0.000111901	dWE(1).Potential/dt < 1E-06 V/s
124.099	-0.0275665	113.4	1135	0.000127162
124.199	-0.0275726	113.5	1136	-0.00016788	dWE(1).Potential/dt < 1E-06 V/s
124.299	-0.0275696	113.6	1137	0.000137326
124.399	-0.0275696	113.7	1138	-5.59599e-05	dWE(1).Potential/dt < 1E-06 V/s
124.499	-0.0275696	113.8	1139	1.01576e-05
124.599	-0.0275757	113.9	1140	-0.00011187	dWE(1).Potential/dt < 1E-06 V/s
124.699	-0.0275757	114	1141	7.12149e-05
124.799	-0.0275665	114.1	1142	0.000147509
124.899	-0.0275604	114.2	1143	5.07879e-06
124.999	-0.0275696	114.3	1144	-0.000208553	dWE(1).Potential/dt < 1E-06 V/s
125.099	-0.0275665	114.4	1145	0.000183128
125.199	-0.0275726	114.5	1146	-0.000178056	dWE(1).Potential/dt < 1E-06 V/s
125.299	-0.0275726	114.6	1147	8.13973e-05
125.399	-0.0275787	114.7	1148	-0.000132254	dWE(1).Potential/dt < 1E-06 V/s
125.499	-0.0275757	114.8	1149	0.000127206
125.599	-0.0275665	114.9	1150	0.000111882
125.699	-0.0275787	115	1151	-0.000320467	dWE(1).Potential/dt < 1E-06 V/s
125.799	-0.0275757	115.1	1152	0.000228943
125.899	-0.0275757	115.2	1153	-7.62999e-05	dWE(1).Potential/dt < 1E-06 V/s
125.999	-0.0275787	115.3	1154	-4.57899e-05	dWE(1).Potential/dt < 1E-06 V/s
126.099	-0.0275848	115.4	1155	-7.62812e-05	dWE(1).Potential/dt < 1E-06 V/s
126.199	-0.0275787	115.5	1156	0.000172915
126.299	-0.0275818	115.6	1157	-0.000147465	dWE(1).Potential/dt < 1E-06 V/s
126.399	-0.0275818	115.7	1158	5.59164e-05
126.499	-0.0275818	115.8	1159	-1.01762e-05	dWE(1).Potential/dt < 1E-06 V/s
126.599	-0.0275848	115.9	1160	-5.59847e-05	dWE(1).Potential/dt < 1E-06 V/s
126.699	-0.0275818	116	1161	9.15859e-05
126.799	-0.0275848	116.1	1162	-0.000101781	dWE(1).Potential/dt < 1E-06 V/s
126.899	-0.0275787	116.2	1163	0.000157691
126.999	-0.0275787	116.3	1164	-8.13662e-05	dWE(1).Potential/dt < 1E-06 V/s
127.099	-0.0275879	116.4	1165	-0.000147484	dWE(1).Potential/dt < 1E-06 V/s
127.199	-0.0275787	116.5	1166	0.000274634
127.299	-0.0275818	116.6	1167	-0.000193236	dWE(1).Potential/dt < 1E-06 V/s
127.399	-0.0275848	116.7	1168	1.01079e-05
127.499	-0.0275818	116.8	1169	8.14159e-05
127.599	-0.0275879	116.9	1170	-0.00015771	dWE(1).Potential/dt < 1E-06 V/s
127.699	-0.0275818	117	1171	0.000193305
127.799	-0.0275848	117.1	1172	-0.000147552	dWE(1).Potential/dt < 1E-06 V/s
127.899	-0.0275818	117.2	1173	0.000111932
127.999	-0.0275879	117.3	1174	-0.00015771	dWE(1).Potential/dt < 1E-06 V/s
128.099	-0.027597	117.4	1175	-8.64388e-05	dWE(1).Potential/dt < 1E-06 V/s
128.199	-0.0275848	117.5	1176	0.00031021
128.299	-0.0275909	117.6	1177	-0.000284785	dWE(1).Potential/dt < 1E-06 V/s
128.399	-0.0275848	117.7	1178	0.000223759
128.499	-0.027594	117.8	1179	-0.000259391	dWE(1).Potential/dt < 1E-06 V/s
128.599	-0.0275909	117.9	1180	0.000183147
128.699	-0.027594	118	1181	-0.000122102	dWE(1).Potential/dt < 1E-06 V/s
128.799	-0.0275879	118.1	1182	0.00015771
128.899	-0.0275879	118.2	1183	-8.13973e-05	dWE(1).Potential/dt < 1E-06 V/s
128.999	-0.027594	118.3	1184	-9.15611e-05	dWE(1).Potential/dt < 1E-06 V/s
129.099	-0.0275909	118.4	1185	0.000127206
129.199	-0.027597	118.5	1186	-0.000167861	dWE(1).Potential/dt < 1E-06 V/s
129.299	-0.027594	118.6	1187	0.000137295
129.399	-0.0276001	118.7	1188	-0.000167824	dWE(1).Potential/dt < 1E-06 V/s
129.499	-0.027597	118.8	1189	0.000137332
129.599	-0.0275909	118.9	1190	5.5935e-05
129.699	-0.0276001	119	1191	-0.000228893	dWE(1).Potential/dt < 1E-06 V/s
129.799	-0.027597	119.1	1192	0.000183128
129.899	-0.0276031	119.2	1193	-0.000178056	dWE(1).Potential/dt < 1E-06 V/s
129.999	-0.027597	119.3	1194	0.000193305
130.099	-0.0275909	119.4	1195	2.03338e-05
130.199	-0.027597	119.5	1196	-0.000162745	dWE(1).Potential/dt < 1E-06 V/s
130.299	-0.027594	119.6	1197	0.000147465
130.399	-0.027594	119.7	1198	-5.59164e-05	dWE(1).Potential/dt < 1E-06 V/s
130.499	-0.0276001	119.8	1199	-0.000101731	dWE(1).Potential/dt < 1E-06 V/s
130.599	-0.0276031	119.9	1200	1.5255e-05