File: data/20200212/OCP_p29_1.txt
Time (s)	WE(1).Potential (V)	Corrected time (s)	Index	dWE(1).Potential/dt (V/s)	OCP value (V)
4.53381	-0.000543213	0	1	0	-0.000842554
4.73381	-0.000534058	0.2	3	1.52591e-05
4.93381	-0.000540161	0.4	5	8.13796e-05
5.13381	-0.000537109	0.6	7	-0.00021871
5.33381	-0.000543213	0.8	9	-4.06895e-05
5.53381	-0.000540161	1	11	-4.57763e-05
5.73381	-0.000546265	1.2	13	-0.000111897
5.93381	-0.000543213	1.4	15	0.000218711
6.13381	-0.000540161	1.6	17	-5.08636e-06
6.33381	-0.000549316	1.8	19	1.52577e-05
6.53381	-0.000546265	2	21	-0.000137329
6.73381	-0.000546265	2.2	23	-0.000101724
6.93381	-0.000543213	2.4	25	4.57763e-05
7.13381	-0.000543213	2.6	27	1.01729e-05
7.33381	-0.000537109	2.8	29	0.000111897
7.53381	-0.000546265	3	31	0.000218708
7.73381	-0.000546265	3.2	33	0.000193279
7.93381	-0.000546265	3.4	35	0.000111898
8.13381	-0.000543213	3.6	37	0.000157675
8.33381	-0.000546265	3.8	39	5.59482e-05
8.53381	-0.000546265	4	41	0.000183106
8.73381	-0.000552368	4.2	43	-0.000183105
8.93381	-0.000549316	4.4	45	-0.000340779
9.13381	-0.000549316	4.6	47	-3.05174e-05
9.33381	-0.000546265	4.8	49	0.000147502
9.53381	-0.000543213	5	51	0.0002594
9.73381	-0.00055542	5.2	53	8.13804e-05
9.93381	-0.000549316	5.4	55	-8.138e-05
10.1338	-0.00055542	5.6	57	-0.000111898
10.3338	-0.000549316	5.8	59	-0.000183106
10.5338	-0.000552368	6	61	-0.000340778
10.7338	-0.000549316	6.2	63	-0.000167847
10.9338	-0.000540161	6.4	65	0.000157673
11.1338	-0.000552368	6.6	67	8.13794e-05
11.3338	-0.000549316	6.8	69	-0.00013733
11.5338	-0.000546265	7	71	0.00013733
11.7338	-0.000549316	7.2	73	0.000147503
11.9338	-0.000549316	7.4	75	-8.13808e-05
12.1338	-0.000552368	7.6	77	-0.000157675
12.3338	-0.000552368	7.8	79	-0.000295003
12.5338	-0.000552368	8	81	-0.000122071
12.7338	-0.00055542	8.2	83	-0.000249228
12.9338	-0.000549316	8.4	85	-1.01717e-05
13.1338	-0.000558472	8.6	87	-6.61196e-05
13.3338	-0.000558472	8.8	89	-2.03445e-05
13.5338	-0.000558472	9	91	9.15522e-05
13.7338	-0.000561523	9.2	93	-0.000137328
13.9338	-0.000561523	9.4	95	-2.03451e-05
14.1338	-0.000558472	9.6	97	5.59488e-05
14.3338	-0.000558472	9.8	99	1.01729e-05
14.5338	-0.000561523	10	101	-0.000239052
14.7338	-0.000564575	10.2	103	-8.64666e-05
14.9338	-0.000567627	10.4	105	-6.61215e-05
15.1338	-0.000561523	10.6	107	-0.000356036
15.3338	-0.000567627	10.8	109	-0.000142416
15.5338	-0.000564575	11	111	-0.000147503
15.7338	-0.000561523	11.2	113	4.57765e-05
15.9338	-0.000558472	11.4	115	6.61213e-05
16.1338	-0.000564575	11.6	117	8.138e-05
16.3338	-0.000564575	11.8	119	0.000274657
16.5338	-0.000558472	12	121	-0.000132241
16.7338	-0.00057373	12.2	123	0.000259398
16.9338	-0.00057373	12.4	125	-0.000172931
17.1338	-0.000561523	12.6	127	2.03464e-05
17.3338	-0.000564575	12.8	129	0.000422158
17.5338	-0.000567627	13	131	-0.000198364
17.7338	-0.000567627	13.2	133	-0.000122071
17.9338	-0.000579834	13.4	135	-5.08632e-05
18.1338	-0.000570679	13.6	137	5.5947e-05
18.3338	-0.00057373	13.8	139	5.59488e-05
18.5338	-0.000576782	14	141	-0.0001475
18.7338	-0.000570679	14.2	143	0.00036621
18.9338	-0.000576782	14.4	145	0.000122069
19.1338	-0.000582886	14.6	147	-2.03449e-05
19.3338	-0.000582886	14.8	149	-1.01723e-05
19.5338	-0.000582886	15	151	9.1552e-05
19.7338	-0.000579834	15.2	153	-0.000208537
19.9338	-0.000585937	15.4	155	-0.000132243
20.1338	-0.000579834	15.6	157	-9.15525e-05
20.3338	-0.000582886	15.8	159	-0.000147502
20.5338	-0.000582886	16	161	7.12069e-05
20.7338	-0.000585937	16.2	163	0.000137327
20.9338	-0.000588989	16.4	165	-0.000137327
21.1338	-0.000579834	16.6	167	-3.56026e-05
21.3338	-0.000582886	16.8	169	0.000137329
21.5338	-0.000588989	17	171	0.000172932
21.7338	-0.000588989	17.2	173	0.000193278
21.9338	-0.000579834	17.4	175	0.000188191
22.1338	-0.000595093	17.6	177	0.000116983
22.3338	-0.000585937	17.8	179	-0.000116984
22.5338	-0.000588989	18	181	-0.000239053
22.7338	-0.000588989	18.2	183	6.10348e-05
22.9338	-0.000582886	18.4	185	0.000213621
23.1338	-0.000582886	18.6	187	0.000122069
23.3338	-0.000585937	18.8	189	0.000228879
23.5338	-0.000592041	19	191	-1.94025e-10
23.7338	-0.000595093	19.2	193	-0.000249225
23.9338	-0.000592041	19.4	195	2.54316e-05
24.1338	-0.000579834	19.6	197	5.08632e-05
24.3338	-0.000595093	19.8	199	1.52585e-05
24.5338	-0.000588989	20	201	-3.8805e-10
24.7338	-0.000595093	20.2	203	-1.01733e-05
24.9338	-0.000601196	20.4	205	-0.000305176
25.1338	-0.000601196	20.6	207	-0.000315349
25.3338	-0.000592041	20.8	209	4.57772e-05
25.5338	-0.000598145	21	211	1.94025e-10
25.7338	-0.000598145	21.2	213	-0.000101726
25.9338	-0.000595093	21.4	215	-0.00013733
26.1338	-0.000598145	21.6	217	2.54318e-05
26.3338	-0.000592041	21.8	219	-0.000254312
26.5338	-0.000595093	22	221	0.000289916
26.7338	-0.000595093	22.2	223	0.000305174
26.9338	-0.000598145	22.4	225	6.61217e-05
27.1338	-0.000601196	22.6	227	-0.000147502
27.3338	-0.000598145	22.8	229	0.00031026
27.5338	-0.000601196	23	231	-1.52589e-05
27.7338	-0.000592041	23.2	233	-2.5431e-05
27.9338	-0.000595093	23.4	235	4.57767e-05
28.1338	-0.000598145	23.6	237	-5.5949e-05
28.3338	-0.000604248	23.8	239	-0.000213622
28.5338	-0.000604248	24	241	-0.000213621
28.7338	-0.000595093	24.2	243	5.59492e-05
28.9338	-0.0006073	24.4	245	-0.000111896
29.1338	-0.000604248	24.6	247	-0.000340777
29.3338	-0.0006073	24.8	249	-8.6466e-05
29.5338	-0.000604248	25	251	0.00013733
29.7338	-0.000604248	25.2	253	-0.000162758
29.9338	-0.0006073	25.4	255	-0.000167845
30.1338	-0.000610352	25.6	257	-0.000167846
30.3338	-0.000610352	25.8	259	-0.00020345
30.5338	-0.000604248	26	261	-0.000183104
30.7338	-0.0006073	26.2	263	2.54308e-05
30.9338	-0.0006073	26.4	265	-1.94025e-10
31.1338	-0.000610352	26.6	267	0.000127157
31.3338	-0.000610352	26.8	269	1.01725e-05
31.5338	-0.000604248	27	271	2.03447e-05
31.7338	-0.000616455	27.2	273	-0.000122071
31.9338	-0.000616455	27.4	275	-0.000305176
32.1338	-0.000610352	27.6	277	-0.000101725
32.3338	-0.000619507	27.8	279	-0.000167845
32.5338	-0.000616455	28	281	-0.000157673
32.7338	-0.000619507	28.2	283	-0.000157672
32.9338	-0.000610352	28.4	285	-0.000127156
33.1338	-0.000604248	28.6	287	0.000203451
33.3338	-0.000610352	28.8	289	1.01717e-05
33.5338	-0.000610352	29	291	-0.000193278
33.7338	-0.000604248	29.2	293	9.15529e-05
33.9338	-0.000610352	29.4	295	-0.000183104
34.1338	-0.000610352	29.6	297	-0.000305174
34.3338	-0.000610352	29.8	299	-0.000122071
34.5338	-0.0006073	30	301	0.00013733
34.7338	-0.000619507	30.2	303	-0.000111896
34.9338	-0.000613403	30.4	305	-0.000101724
35.1338	-0.000604248	30.6	307	0.000167847
35.3338	-0.0006073	30.8	309	0.000249227
35.5338	-0.000610352	31	311	5.59492e-05
35.7338	-0.000610352	31.2	313	0
35.9338	-0.000610352	31.4	315	-9.15533e-05
36.1338	-0.000610352	31.6	317	0.000172933
36.3338	-0.000613403	31.8	319	0.000147501
36.5338	-0.000610352	32	321	0.000249225
36.7338	-0.000622559	32.2	323	-0.000193277
36.9338	-0.000604248	32.4	325	0.000203451
37.1338	-0.0006073	32.6	327	8.64656e-05
37.3338	-0.000613403	32.8	329	0.000345864
37.5338	-0.000613403	33	331	3.05176e-05
37.7338	-0.000613403	33.2	333	-9.15531e-05
37.9338	-0.000613403	33.4	335	8.13794e-05
38.1338	-0.000610352	33.6	337	0.000157673
38.3338	-0.000616455	33.8	339	3.8805e-10
38.5338	-0.000622559	34	341	-3.05176e-05
38.7338	-0.000616455	34.2	343	-0.000264485
38.9338	-0.000619507	34.4	345	-0.000259398
39.1338	-0.000619507	34.6	347	-0.000213621
39.3338	-0.000628662	34.8	349	-0.000279743
39.5338	-0.000619507	35	351	-0.000147501
39.7338	-0.000619507	35.2	353	-9.15514e-05
39.9338	-0.000622559	35.4	355	-0.000249224
40.1338	-0.000610352	35.6	357	1.01733e-05
40.3338	-0.000613403	35.8	359	0.000330605
40.5338	-0.00062561	36	361	8.13785e-05
40.7338	-0.000619507	36.2	363	-0.000356036
40.9338	-0.000613403	36.4	365	-1.01723e-05
41.1338	-0.000613403	36.6	367	0.000193276
41.3338	-0.000622559	36.8	369	0.000127155
41.5338	-0.000622559	37	371	-9.1552e-05
41.7338	-0.000616455	37.2	373	1.01719e-05
41.9338	-0.000622559	37.4	375	-0.000101724
42.1338	-0.000616455	37.6	377	9.15514e-05
42.3338	-0.00062561	37.8	379	-5.59492e-05
42.5338	-0.00062561	38	381	-0.000111898
42.7338	-0.000622559	38.2	383	4.57765e-05
42.9338	-0.000628662	38.4	385	-0.000101726
43.1338	-0.000628662	38.6	387	-0.000203451
43.3338	-0.00062561	38.8	389	-0.000239054
43.5338	-0.00062561	39	391	7.12083e-05
43.7338	-0.000631714	39.2	393	-1.01721e-05
43.9338	-0.000628662	39.4	395	-4.57757e-05
44.1338	-0.00062561	39.6	397	-0.000127157
44.3338	-0.000631714	39.8	399	0.000152586
44.5338	-0.000631714	40	401	-0.000356038
44.7338	-0.000634766	40.2	403	-0.00018819
44.9338	-0.000631714	40.4	405	-0.000147501
45.1338	-0.000637817	40.6	407	0.000152587
45.3338	-0.000637817	40.8	409	1.01723e-05
45.5338	-0.000634766	41	411	-0.000218706
45.7338	-0.000637817	41.2	413	-7.62935e-05
45.9338	-0.000634766	41.4	415	-4.57755e-05
46.1338	-0.000631714	41.6	417	0.0001475
46.3338	-0.000637817	41.8	419	-9.1552e-05
46.5338	-0.000637817	42	421	-0.000111897
46.7338	-0.000631714	42.2	423	0.000193277
46.9338	-0.000646973	42.4	425	-6.61229e-05
47.1338	-0.000631714	42.6	427	-0.000116985
47.3338	-0.000634766	42.8	429	0.000137328
47.5338	-0.000637817	43	431	0.000228882
47.7338	-0.000631714	43.2	433	0.000132241
47.9338	-0.000646973	43.4	435	1.52579e-05
48.1338	-0.000643921	43.6	437	-0.000147502
48.3338	-0.000650024	43.8	439	-0.000122069
48.5338	-0.000643921	44	441	1.94025e-10
48.7338	-0.000640869	44.2	443	0.000249225
48.9338	-0.000646973	44.4	445	0.000101724
49.1338	-0.000650024	44.6	447	-0.0001475
49.3338	-0.000646973	44.8	449	-0.000147501
49.5338	-0.000646973	45	451	-0.000193278
49.7338	-0.000643921	45.2	453	-0.000147502
49.9338	-0.000643921	45.4	455	0.000172931
50.1338	-0.000646973	45.6	457	-0.000127157
50.3338	-0.000643921	45.8	459	0.000218707
50.5338	-0.000640869	46	461	0.000178018
50.7338	-0.000650024	46.2	463	-5.5947e-05
50.9338	-0.000650024	46.4	465	7.12073e-05
51.1338	-0.000653076	46.6	467	-0.000137328
51.3338	-0.000650024	46.8	469	-5.59478e-05
51.5338	-0.000646973	47	471	0.000239053
51.7338	-0.000650024	47.2	473	0.000157673
51.9338	-0.000637817	47.4	475	0.000325519
52.1338	-0.000656128	47.6	477	8.138e-05
52.3338	-0.000650024	47.8	479	-3.8805e-10
52.5338	-0.000653076	48	481	4.57757e-05
52.7338	-0.000646973	48.2	483	0.000111896
52.9338	-0.000653076	48.4	485	-1.94025e-10
53.1338	-0.000656128	48.6	487	-6.61217e-05
53.3338	-0.000656128	48.8	489	-1.01725e-05
53.5338	-0.000653076	49	491	-3.56043e-05
53.7338	-0.000643921	49.2	493	0.000350952
53.9338	-0.000653076	49.4	495	0.000340779
54.1338	-0.000656128	49.6	497	-3.56041e-05
54.3338	-0.000662231	49.8	499	-0.000122071
54.5338	-0.00065918	50	501	-0.000239055
54.7338	-0.000662231	50.2	503	-7.62939e-05
54.9338	-0.00065918	50.4	505	-0.000137329
55.1338	-0.000662231	50.6	507	0.000116982
55.3338	-0.00065918	50.8	509	6.61209e-05
55.5338	-0.000653076	51	511	0.000396726
55.7338	-0.00065918	51.2	513	0.000305174
55.9338	-0.000656128	51.4	515	0.000167846
56.1338	-0.000668335	51.6	517	0.000162759
56.3338	-0.000662231	51.8	519	2.03445e-05
56.5338	-0.000662231	52	521	0.000101724
56.7338	-0.000671387	52.2	523	-0.000157673
56.9338	-0.000671387	52.4	525	-0.000122071
57.1338	-0.000668335	52.6	527	-0.00022888
57.3338	-0.000665283	52.8	529	-0.0001475
57.5338	-0.000665283	53	531	0.000172933
57.7338	-0.000671387	53.2	533	0.000183106
57.9338	-0.000668335	53.4	535	6.61215e-05
58.1338	-0.000671387	53.6	537	-0.00022888
58.3338	-0.000674438	53.8	539	-8.64664e-05
58.5338	-0.000671387	54	541	-4.57767e-05
58.7338	-0.000671387	54.2	543	-9.15533e-05
58.9338	-0.00067749	54.4	545	0.000152586
59.1338	-0.000674438	54.6	547	-0.000116984
59.3338	-0.00067749	54.8	549	-0.000432331
59.5338	-0.000674438	55	551	-0.000178019
59.7338	-0.000668335	55.2	553	0.000101726
59.9338	-0.000671387	55.4	555	0.000422158
60.1338	-0.000680542	55.6	557	-0.000127156
60.3338	-0.00067749	55.8	559	0.000116982
60.5338	-0.000683594	56	561	9.15516e-05
60.7338	-0.00067749	56.2	563	-0.000162759
60.9338	-0.00067749	56.4	565	0.000264484
61.1338	-0.000686646	56.6	567	-0.00022888
61.3338	-0.000680542	56.8	569	-2.03452e-05
61.5338	-0.000680542	57	571	0.000101725
61.7338	-0.000680542	57.2	573	0.000101725
61.9338	-0.00067749	57.4	575	0.000340779
62.1338	-0.000683594	57.6	577	2.03449e-05
62.3338	-0.000680542	57.8	579	0.00013733
62.5338	-0.000689697	58	581	-0.000239053
62.7338	-0.000686646	58.2	583	-7.6294e-05
62.9338	-0.000692749	58.4	585	-0.000203451
63.1338	-0.000683594	58.6	587	4.57772e-05
63.3338	-0.000683594	58.8	589	0.000203451
63.5338	-0.000686646	59	591	-3.56041e-05
63.7338	-0.000683594	59.2	593	4.57765e-05
63.9338	-0.000686646	59.4	595	0.000228882
64.1338	-0.000689697	59.6	597	0.000147501
64.3338	-0.000692749	59.8	599	-4.57763e-05
64.5338	-0.000689697	60	601	-4.57757e-05
64.7338	-0.000689697	60.2	603	9.1552e-05
64.9338	-0.000695801	60.4	605	-0.000101724
65.1338	-0.000689697	60.6	607	-0.000183105
65.3338	-0.000692749	60.8	609	-0.000249228
65.5338	-0.000692749	61	611	-0.00012207
65.7338	-0.000698853	61.2	613	-0.000213621
65.9338	-0.000695801	61.4	615	-6.61204e-05
66.1338	-0.000695801	61.6	617	0.000274659
66.3338	-0.000689697	61.8	619	5.08626e-05
66.5338	-0.000698853	62	621	-0.000249226
66.7338	-0.000695801	62.2	623	-0.000167845
66.9338	-0.000695801	62.4	625	0.000264486
67.1338	-0.000695801	62.6	627	3.0518e-05
67.3338	-0.000695801	62.8	629	-9.15514e-05
67.5338	-0.000698853	63	631	2.54308e-05
67.7338	-0.000698853	63.2	633	-9.1552e-05
67.9338	-0.000701904	63.4	635	-0.000157673
68.1338	-0.000701904	63.6	637	-0.000111898
68.3338	-0.000698853	63.8	639	0.00013733
68.5338	-0.000701904	64	641	-0.000127156
68.7338	-0.000704956	64.2	643	-0.000259399
68.9338	-0.000704956	64.4	645	-0.000488279
69.1338	-0.000698853	64.6	647	-0.000122071
69.3338	-0.000701904	64.8	649	0.000127157
69.5338	-0.000692749	65	651	0.000452675
69.7338	-0.000701904	65.2	653	-1.52593e-05
69.9338	-0.000701904	65.4	655	-2.03451e-05
70.1338	-0.000692749	65.6	657	0.00035095
70.3338	-0.000701904	65.8	659	0.000157673
70.5338	-0.000708008	66	661	-0.000111898
70.7338	-0.000701904	66.2	663	9.15525e-05
70.9338	-0.000701904	66.4	665	0.000111898
71.1338	-0.000704956	66.6	667	0.000137329
71.3338	-0.000704956	66.8	669	1.01727e-05
71.5338	-0.000704956	67	671	1.94025e-10
71.7338	-0.000704956	67.2	673	1.94025e-10
71.9338	-0.000704956	67.4	675	-9.15531e-05
72.1338	-0.000701904	67.6	677	4.57767e-05
72.3338	-0.00071106	67.8	679	0.000116984
72.5338	-0.00071106	68	681	-0.000274656
72.7338	-0.000708008	68.2	683	0.000116982
72.9338	-0.00071106	68.4	685	-3.5603e-05
73.1338	-0.00071106	68.6	687	-0.000101724
73.3338	-0.000714111	68.8	689	-0.000157673
73.5338	-0.000717163	69	691	1.52593e-05
73.7338	-0.000714111	69.2	693	5.5949e-05
73.9338	-0.000714111	69.4	695	-0.000172931
74.1338	-0.00071106	69.6	697	3.56039e-05
74.3338	-0.000714111	69.8	699	0.000137329
74.5338	-0.000717163	70	701	4.57767e-05
74.7338	-0.000717163	70.2	703	-0.000183105
74.9338	-0.000714111	70.4	705	-0.000239053
75.1338	-0.000720215	70.6	707	-4.06897e-05
75.3338	-0.00071106	70.8	709	6.61213e-05
75.5338	-0.000717163	71	711	-9.15525e-05
75.7338	-0.000714111	71.2	713	0.000127157
75.9338	-0.000717163	71.4	715	0.000147503
76.1338	-0.00071106	71.6	717	0.000305176
76.3338	-0.000717163	71.8	719	0.000203451
76.5338	-0.000723267	72	721	-0.000193279
76.7338	-0.000720215	72.2	723	2.5431e-05
76.9338	-0.000723267	72.4	725	-4.57763e-05
77.1338	-0.000726318	72.6	727	-0.000157672
77.3338	-0.000720215	72.8	729	9.1552e-05
77.5338	-0.000720215	73	731	0.000203449
77.7338	-0.000723267	73.2	733	-3.56039e-05
77.9338	-0.000720215	73.4	735	4.57761e-05
78.1338	-0.000726318	73.6	737	-1.01719e-05
78.3338	-0.000723267	73.8	739	-0.000228881
78.5338	-0.00072937	74	741	-0.000223794
78.7338	-0.000726318	74.2	743	-6.61204e-05
78.9338	-0.000723267	74.4	745	5.59478e-05
79.1338	-0.000726318	74.6	747	0.000320435
79.3338	-0.00072937	74.8	749	0.000432331
79.5338	-0.000732422	75	751	-1.52593e-05
79.7338	-0.00072937	75.2	753	-4.57769e-05
79.9338	-0.000738525	75.4	755	-0.000350951
80.1338	-0.000735474	75.6	757	-0.000361124
80.3338	-0.00072937	75.8	759	-0.000101726
80.5338	-0.00072937	76	761	9.15531e-05
80.7338	-0.000726318	76.2	763	0.00034078
80.9338	-0.000720215	76.4	765	0.000152587
81.1338	-0.000732422	76.6	767	-0.000295003
81.3338	-0.00072937	76.8	769	-0.00026957
81.5338	-0.00072937	77	771	0.000162762
81.7338	-0.00072937	77.2	773	-0.000437417
81.9338	-0.00072937	77.4	775	-0.000233966
82.1338	-0.000720215	77.6	777	5.59486e-05
82.3338	-0.000723267	77.8	779	0.000239051
82.5338	-0.000732422	78	781	-0.000147501
82.7338	-0.000726318	78.2	783	-0.000284828
82.9338	-0.000726318	78.4	785	-0.000203448
83.1338	-0.000726318	78.6	787	7.12073e-05
83.3338	-0.000720215	78.8	789	0.000305174
83.5338	-0.000732422	79	791	-9.15525e-05
83.7338	-0.000726318	79.2	793	8.13806e-05
83.9338	-0.000732422	79.4	795	-9.15525e-05
84.1338	-0.000726318	79.6	797	9.15529e-05
84.3338	-0.00072937	79.8	799	-3.56035e-05
84.5338	-0.00072937	80	801	-0.000101724
84.7338	-0.000723267	80.2	803	0.000193277
84.9338	-0.000732422	80.4	805	-4.57767e-05
85.1338	-0.000732422	80.6	807	-0.000295002
85.3338	-0.000726318	80.8	809	8.13806e-05
85.5338	-0.000723267	81	811	0.000259398
85.7338	-0.000732422	81.2	813	4.57751e-05
85.9338	-0.000726318	81.4	815	-8.13796e-05
86.1338	-0.000732422	81.6	817	-0.000203449
86.3338	-0.00072937	81.8	819	-0.000249225
86.5338	-0.000726318	82	821	-0.0001475
86.7338	-0.000732422	82.2	823	-0.00012207
86.9338	-0.000726318	82.4	825	-0.000183104
87.1338	-0.000732422	82.6	827	0.00024414
87.3338	-0.000726318	82.8	829	4.06897e-05
87.5338	-0.000732422	83	831	8.138e-05
87.7338	-0.000732422	83.2	833	-9.15533e-05
87.9338	-0.00072937	83.4	835	0.00013733
88.1338	-0.000732422	83.6	837	-0.000127156
88.3338	-0.000735474	83.8	839	-7.6294e-05
88.5338	-0.00072937	84	841	-8.1381e-05
88.7338	-0.000735474	84.2	843	-2.03449e-05
88.9338	-0.000735474	84.4	845	0.000172931
89.1338	-0.000741577	84.6	847	-0.000183105
89.3338	-0.000738525	84.8	849	-6.61213e-05
89.5338	-0.000738525	85	851	-0.000274659
89.7338	-0.000735474	85.2	853	-6.61207e-05
89.9338	-0.000738525	85.4	855	3.5603e-05
90.1338	-0.000741577	85.6	857	-5.59478e-05
90.3338	-0.000735474	85.8	859	1.01727e-05
90.5338	-0.000744629	86	861	0.000116983
90.7338	-0.000744629	86.2	863	-1.94025e-10
90.9338	-0.000741577	86.4	865	5.59488e-05
91.1338	-0.000747681	86.6	867	-1.01733e-05
91.3338	-0.000744629	86.8	869	-0.000137329
91.5338	-0.000744629	87	871	8.13806e-05
91.7338	-0.000744629	87.2	873	0.000101726
91.9338	-0.000750732	87.4	875	8.1381e-05
92.1338	-0.000747681	87.6	877	-0.000218709
92.3338	-0.000750732	87.8	879	-0.000167847
92.5338	-0.000738525	88	881	2.03429e-05
92.7338	-0.000750732	88.2	883	0.000345864
92.9338	-0.000741577	88.4	885	-0.000178018
93.1338	-0.000744629	88.6	887	-0.000157673
93.3338	-0.000750732	88.8	889	-0.000315347
93.5338	-0.000750732	89	891	-0.000223796
93.7338	-0.000744629	89.2	893	-9.15535e-05
93.9338	-0.000747681	89.4	895	0.000127157
94.1338	-0.000747681	89.6	897	0.000101726
94.3338	-0.000753784	89.8	899	-1.01721e-05
94.5338	-0.000753784	90	901	-1.01729e-05
94.7338	-0.000753784	90.2	903	-0.000183105
94.9338	-0.000753784	90.4	905	-2.03454e-05
95.1338	-0.000747681	90.6	907	0.000111898
95.3338	-0.000750732	90.8	909	0.000147501
95.5338	-0.000753784	91	911	0.000137327
95.7338	-0.000756836	91.2	913	0.000228881
95.9338	-0.000762939	91.4	915	-7.76099e-10
96.1338	-0.000753784	91.6	917	-0.000116984
96.3338	-0.000769043	91.8	919	-9.66403e-05
96.5338	-0.000765991	92	921	-0.000340779
96.7338	-0.000756836	92.2	923	-0.000137329
96.9338	-0.000762939	92.4	925	0.000162761
97.1338	-0.000762939	92.6	927	0.000101726
97.3338	-0.000759888	92.8	929	0.000249227
97.5338	-0.000769043	93	931	0.000137329
97.7338	-0.000765991	93.2	933	0.0001475
97.9338	-0.000765991	93.4	935	0.000111897
98.1338	-0.000769043	93.6	937	4.57755e-05
98.3338	-0.000759888	93.8	939	-0.000198364
98.5338	-0.000775146	94	941	0.000167846
98.7338	-0.000769043	94.2	943	-0.000162759
98.9338	-0.000769043	94.4	945	8.13789e-05
99.1338	-0.00078125	94.6	947	-0.000213622
99.3338	-0.000772095	94.8	949	3.56039e-05
99.5338	-0.000775146	95	951	5.59482e-05
99.7338	-0.00078125	95.2	953	-0.00020345
99.9338	-0.000775146	95.4	955	-0.000101726
100.134	-0.000772095	95.6	957	0.000239055
100.334	-0.00078125	95.8	959	0.000228881
100.534	-0.000775146	96	961	-6.10359e-05
100.734	-0.000778198	96.2	963	0.000127157
100.934	-0.000778198	96.4	965	1.01725e-05
101.134	-0.000778198	96.6	967	9.15533e-05
101.334	-0.000775146	96.8	969	6.61215e-05
101.534	-0.000778198	97	971	4.57767e-05
101.734	-0.000772095	97.2	973	2.03447e-05
101.934	-0.000775146	97.4	975	0.000503538
102.134	-0.000778198	97.6	977	-5.08675e-06
102.334	-0.000778198	97.8	979	0.000172933
102.534	-0.00078125	98	981	-3.56039e-05
102.734	-0.000787354	98.2	983	-0.000213622
102.934	-0.000787354	98.4	985	-0.000122069
103.134	-0.000790405	98.6	987	-6.61209e-05
103.334	-0.000784302	98.8	989	1.01719e-05
103.534	-0.00078125	99	991	-2.54308e-05
103.734	-0.000793457	99.2	993	-0.000132242
103.934	-0.000784302	99.4	995	-4.5777e-05
104.134	-0.000784302	99.6	997	0.000101724
104.334	-0.000790405	99.8	999	-0.00028483
104.534	-0.000784302	100	1001	7.12063e-05
104.734	-0.000775146	100.2	1003	0.000371295
104.934	-0.000787354	100.4	1005	0.00028483
105.134	-0.000790405	100.6	1007	-0.000137328
105.334	-0.000793457	100.8	1009	-0.000259398
105.534	-0.000793457	101	1011	-0.000213622
105.734	-0.000787354	101.2	1013	9.15529e-05
105.934	-0.000793457	101.4	1015	-9.15525e-05
106.134	-0.000790405	101.6	1017	3.56039e-05
106.334	-0.000796509	101.8	1019	8.1381e-05
106.534	-0.000790405	102	1021	-7.12085e-05
106.734	-0.000799561	102.2	1023	-0.000167847
106.934	-0.000802612	102.4	1025	-0.00026957
107.134	-0.000799561	102.6	1027	-0.000432331
107.334	-0.000796509	102.8	1029	-0.0002594
107.534	-0.000796509	103	1031	-2.03449e-05
107.734	-0.000793457	103.2	1033	-3.56041e-05
107.934	-0.000796509	103.4	1035	-5.5949e-05
108.134	-0.000796509	103.6	1037	-0.000101726
108.334	-0.000799561	103.8	1039	-6.61213e-05
108.534	-0.000796509	104	1041	-0.000137329
108.734	-0.000802612	104.2	1043	0.00024414
108.934	-0.000796509	104.4	1045	-5.08617e-05
109.134	-0.000799561	104.6	1047	-5.59488e-05
109.334	-0.000796509	104.8	1049	-0.000137329
109.534	-0.000808716	105	1051	-0.000142415
109.734	-0.000799561	105.2	1053	-4.5777e-05
109.934	-0.000802612	105.4	1055	0.000137328
110.134	-0.000796509	105.6	1057	3.05176e-05
110.334	-0.000811768	105.8	1059	5.08461e-06
110.534	-0.000808716	106	1061	-0.000147503
110.734	-0.000802612	106.2	1063	0.000101725
110.934	-0.000805664	106.4	1065	0.000147502
111.134	-0.000808716	106.6	1067	-4.57767e-05
111.334	-0.000808716	106.8	1069	-0.000284829
111.534	-0.000805664	107	1071	0.000116985
111.734	-0.000805664	107.2	1073	0.000203451
111.934	-0.000808716	107.4	1075	0.000147503
112.134	-0.000805664	107.6	1077	0.000157675
112.334	-0.000811768	107.8	1079	1.94025e-10
112.534	-0.000811768	108	1081	-0.000101726
112.734	-0.000820923	108.2	1083	-8.6466e-05
112.934	-0.000817871	108.4	1085	-0.0001475
113.134	-0.000814819	108.6	1087	-4.57763e-05
113.334	-0.000808716	108.8	1089	-7.12075e-05
113.534	-0.000820923	109	1091	5.08624e-05
113.734	-0.000820923	109.2	1093	-1.01727e-05
113.934	-0.000814819	109.4	1095	-0.000162759
114.134	-0.000817871	109.6	1097	2.54314e-05
114.334	-0.000814819	109.8	1099	-0.000127156
114.534	-0.000814819	110	1101	8.13789e-05
114.734	-0.000817871	110.2	1103	-0.000137327
114.934	-0.000827026	110.4	1105	8.6467e-05
115.134	-0.000823975	110.6	1107	-3.56041e-05
115.334	-0.000836182	110.8	1109	-0.000315348
115.534	-0.000830078	111	1111	-0.000305175
115.734	-0.000820923	111.2	1113	-3.56035e-05
115.934	-0.000820923	111.4	1115	-8.13794e-05
116.134	-0.000817871	111.6	1117	0.00013733
116.334	-0.00083313	111.8	1119	1.52604e-05
116.534	-0.000827026	112	1121	-0.000183105
116.734	-0.000823975	112.2	1123	4.57767e-05
116.934	-0.000823975	112.4	1125	-8.13808e-05
117.134	-0.000830078	112.6	1127	6.10346e-05
117.334	-0.00083313	112.8	1129	-0.000239053
117.534	-0.000827026	113	1131	-0.000193277
117.734	-0.000830078	113.2	1133	-0.000157675
117.934	-0.000830078	113.4	1135	-0.000203451
118.134	-0.000830078	113.6	1137	0.000162758
118.334	-0.00083313	113.8	1139	-0.000127155
118.534	-0.000827026	114	1141	0.00036621
118.734	-0.00083313	114.2	1143	0.00012207
118.934	-0.00083313	114.4	1145	0.000183105
119.134	-0.000830078	114.6	1147	-0.000106811
119.334	-0.000836182	114.8	1149	-3.05176e-05
119.534	-0.00083313	115	1151	0.000228883
119.734	-0.000836182	115.2	1153	0.000249227
119.934	-0.00083313	115.4	1155	0.000167847
120.134	-0.000839233	115.6	1157	0.000274658
120.334	-0.000845337	115.8	1159	-9.15529e-05
120.534	-0.000845337	116	1161	-0.000295004
120.734	-0.000842285	116.2	1163	-6.61207e-05
120.934	-0.000842285	116.4	1165	-9.15531e-05
121.134	-0.000842285	116.6	1167	-0.000101726
121.334	-0.000836182	116.8	1169	1.01723e-05
121.534	-0.000845337	117	1171	-0.000249226
121.734	-0.00083313	117.2	1173	0.000366209
121.934	-0.000842285	117.4	1175	0.000259399
122.134	-0.000839233	117.6	1177	6.61217e-05
122.334	-0.000845337	117.8	1179	-1.01721e-05
122.534	-0.000848389	118	1181	-0.000432331
122.734	-0.000842285	118.2	1183	-3.05174e-05
122.934	-0.000845337	118.4	1185	4.57755e-05
123.134	-0.000854492	118.6	1187	1.52577e-05
123.334	-0.000839233	118.8	1189	8.64658e-05
123.534	-0.000848389	119	1191	-4.57747e-05
123.734	-0.000845337	119.2	1193	3.5603e-05
123.934	-0.000845337	119.4	1195	1.01719e-05
124.134	-0.000842285	119.6	1197	5.59486e-05
124.334	-0.000845337	119.8	1199	0.000228879
124.434	-0.000839233	119.9	1200	1.01733e-05