File: data/20200212/OCP_p31_1.txt
Time (s)	WE(1).Potential (V)	Corrected time (s)	Index	dWE(1).Potential/dt (V/s)	Cutoffs	OCP value (V)
1.54475	0.0257416	0	1	0	dWE(1).Potential/dt < 1E-06 V/s	0.0250542
1.64475	0.0257355	0.1	2	-6.10389e-05	dWE(1).Potential/dt < 1E-06 V/s
1.74475	0.0257324	0.2	3	-1.52364e-05	dWE(1).Potential/dt < 1E-06 V/s
1.84475	0.0257355	0.3	4	7.1153e-05
1.94475	0.0257385	0.4	5	1.02383e-05
2.04475	0.0257294	0.5	6	-0.000193324	dWE(1).Potential/dt < 1E-06 V/s
2.14475	0.0257324	0.6	7	0.000172959
2.24475	0.0257324	0.7	8	-6.61487e-05	dWE(1).Potential/dt < 1E-06 V/s
2.34475	0.0257385	0.8	9	0.000122078
2.44475	0.0257172	0.9	10	-0.000462836	dWE(1).Potential/dt < 1E-06 V/s
2.54475	0.0257172	1	11	0.000269556
2.64475	0.0257141	1.1	12	-0.000127194	dWE(1).Potential/dt < 1E-06 V/s
2.74475	0.0257111	1.2	13	-2.03215e-05	dWE(1).Potential/dt < 1E-06 V/s
2.84475	0.0257202	1.3	14	0.000193262
2.94475	0.025708	1.4	15	-0.000340727	dWE(1).Potential/dt < 1E-06 V/s
3.04475	0.0257141	1.5	16	0.000284786
3.14475	0.0257141	1.6	17	-0.000111901	dWE(1).Potential/dt < 1E-06 V/s
3.24475	0.0257141	1.7	18	2.03277e-05
3.34475	0.0257111	1.8	19	-5.59414e-05	dWE(1).Potential/dt < 1E-06 V/s
3.44475	0.0257111	1.9	20	3.56013e-05
3.54475	0.0256958	2	21	-0.000289914	dWE(1).Potential/dt < 1E-06 V/s
3.64475	0.0256989	2.1	22	0.000233948
3.74475	0.025705	2.2	23	2.54313e-05
3.84475	0.0256866	2.3	24	-0.000396694	dWE(1).Potential/dt < 1E-06 V/s
3.94475	0.0256989	2.4	25	0.000457701
4.04475	0.0256927	2.5	26	-0.000315302	dWE(1).Potential/dt < 1E-06 V/s
4.14475	0.0256958	2.6	27	0.00016783
4.24475	0.0256897	2.7	28	-0.000167849	dWE(1).Potential/dt < 1E-06 V/s
4.34475	0.0256866	2.8	29	2.54686e-05
4.44475	0.0256805	2.9	30	-9.66837e-05	dWE(1).Potential/dt < 1E-06 V/s
4.54475	0.0256805	3	31	6.10513e-05
4.64475	0.0256836	3.1	32	3.55827e-05
4.74475	0.0256744	3.2	33	-0.00020345	dWE(1).Potential/dt < 1E-06 V/s
4.84475	0.0256744	3.3	34	0.000116999
4.94475	0.0256714	3.4	35	-8.64391e-05	dWE(1).Potential/dt < 1E-06 V/s
5.04475	0.0256744	3.5	36	9.14993e-05
5.14475	0.0256653	3.6	37	-0.000213577	dWE(1).Potential/dt < 1E-06 V/s
5.24475	0.0256653	3.7	38	0.000116968
5.34475	0.0256683	3.8	39	2.54127e-05
5.44475	0.0256622	3.9	40	-0.000147472	dWE(1).Potential/dt < 1E-06 V/s
5.54475	0.0256683	4	41	0.000193243
5.64475	0.0256683	4.1	42	-9.15552e-05	dWE(1).Potential/dt < 1E-06 V/s
5.74475	0.0256622	4.2	43	-9.15304e-05	dWE(1).Potential/dt < 1E-06 V/s
5.84475	0.0256653	4.3	44	0.000127144
5.94475	0.02565	4.4	45	-0.000335686	dWE(1).Potential/dt < 1E-06 V/s
6.04475	0.0256622	4.5	46	0.000412005
6.14475	0.02565	4.6	47	-0.000417083	dWE(1).Potential/dt < 1E-06 V/s
6.24475	0.0256439	4.7	48	7.12027e-05
6.34475	0.025647	4.8	49	8.65136e-05
6.44475	0.0256561	4.9	50	0.000111883
6.54475	0.025647	5	51	-0.000264489	dWE(1).Potential/dt < 1E-06 V/s
6.64475	0.02565	5.1	52	0.00019328
6.74475	0.025647	5.2	53	-0.000122047	dWE(1).Potential/dt < 1E-06 V/s
6.84475	0.025647	5.3	54	4.57838e-05
6.94475	0.0256409	5.4	55	-0.000122065	dWE(1).Potential/dt < 1E-06 V/s
7.04475	0.0256348	5.5	56	-4.07174e-05	dWE(1).Potential/dt < 1E-06 V/s
7.14475	0.0256348	5.6	57	5.0875e-05
7.24475	0.0256348	5.7	58	-2.03463e-05	dWE(1).Potential/dt < 1E-06 V/s
7.34475	0.0256317	5.8	59	-5.5929e-05	dWE(1).Potential/dt < 1E-06 V/s
7.44475	0.0256348	5.9	60	9.15428e-05
7.54475	0.0256226	6	61	-0.000269587	dWE(1).Potential/dt < 1E-06 V/s
7.64475	0.0256348	6.1	62	0.000376391
7.74475	0.0256317	6.2	63	-0.000239039	dWE(1).Potential/dt < 1E-06 V/s
7.84475	0.0256287	6.3	64	2.03277e-05
7.94475	0.0256226	6.4	65	-8.64516e-05	dWE(1).Potential/dt < 1E-06 V/s
8.04475	0.0256226	6.5	66	6.10078e-05
8.14475	0.0256256	6.6	67	3.562e-05
8.24475	0.0256195	6.7	68	-0.000147534	dWE(1).Potential/dt < 1E-06 V/s
8.34475	0.0256195	6.8	69	8.13976e-05
8.44475	0.0256195	6.9	70	-2.03463e-05	dWE(1).Potential/dt < 1E-06 V/s
8.54475	0.0256134	7	71	-0.000111908	dWE(1).Potential/dt < 1E-06 V/s
8.64475	0.0256104	7.1	72	1.52985e-05
8.74475	0.0256073	7.2	73	-4.07547e-05	dWE(1).Potential/dt < 1E-06 V/s
8.84475	0.0256104	7.3	74	8.14162e-05
8.94475	0.0256073	7.4	75	-0.000101781	dWE(1).Potential/dt < 1E-06 V/s
9.04475	0.0256073	7.5	76	4.57838e-05
9.14475	0.0256165	7.6	77	0.000157698
9.24475	0.0256042	7.7	78	-0.000330619	dWE(1).Potential/dt < 1E-06 V/s
9.34475	0.0256042	7.8	79	0.00017294
9.44475	0.0256042	7.9	80	-4.06926e-05	dWE(1).Potential/dt < 1E-06 V/s
9.54475	0.0256042	8	81	0	dWE(1).Potential/dt < 1E-06 V/s
9.64475	0.0256042	8.1	82	0	dWE(1).Potential/dt < 1E-06 V/s
9.74475	0.0256012	8.2	83	-5.5929e-05	dWE(1).Potential/dt < 1E-06 V/s
9.84475	0.0256042	8.3	84	9.15428e-05
9.94475	0.025592	8.4	85	-0.000269587	dWE(1).Potential/dt < 1E-06 V/s
10.0447	0.025592	8.5	86	0.000152575
10.1447	0.0255951	8.6	87	1.52737e-05
10.2447	0.025589	8.7	88	-0.000147534	dWE(1).Potential/dt < 1E-06 V/s
10.3447	0.0255981	8.8	89	0.000249234
10.4447	0.025589	8.9	90	-0.000294975	dWE(1).Potential/dt < 1E-06 V/s
10.5447	0.0255951	9	91	0.000249222
10.6447	0.025589	9.1	92	-0.000213652	dWE(1).Potential/dt < 1E-06 V/s
10.7447	0.025589	9.2	93	9.15676e-05
10.8447	0.025592	9.3	94	3.55827e-05
10.9447	0.0255829	9.4	95	-0.00020345	dWE(1).Potential/dt < 1E-06 V/s
11.0447	0.0255859	9.5	96	0.000172978
11.1447	0.0255798	9.6	97	-0.000178032	dWE(1).Potential/dt < 1E-06 V/s
11.2447	0.0255798	9.7	98	8.13665e-05
11.3447	0.0255829	9.8	99	3.55765e-05
11.4447	0.0255859	9.9	100	2.04084e-05
11.5447	0.0255798	10	101	-0.000137345	dWE(1).Potential/dt < 1E-06 V/s
11.6447	0.0255798	10.1	102	8.13665e-05
11.7447	0.0255798	10.2	103	-2.03525e-05	dWE(1).Potential/dt < 1E-06 V/s
11.8447	0.0255768	10.3	104	-5.59849e-05	dWE(1).Potential/dt < 1E-06 V/s
11.9447	0.0255707	10.4	105	-7.62505e-05	dWE(1).Potential/dt < 1E-06 V/s
12.0447	0.0255768	10.5	106	0.000172897
12.1447	0.0255737	10.6	107	-0.000147484	dWE(1).Potential/dt < 1E-06 V/s
12.2447	0.0255768	10.7	108	0.00011187
12.3447	0.0255737	10.8	109	-0.000101713	dWE(1).Potential/dt < 1E-06 V/s
12.4447	0.0255768	10.9	110	0.0001017
12.5447	0.0255707	11	111	-0.000157642	dWE(1).Potential/dt < 1E-06 V/s
12.6447	0.0255707	11.1	112	8.13852e-05
12.7447	0.0255707	11.2	113	-2.03277e-05	dWE(1).Potential/dt < 1E-06 V/s
12.8447	0.0255676	11.3	114	-5.59663e-05	dWE(1).Potential/dt < 1E-06 V/s
12.9447	0.0255615	11.4	115	-7.62815e-05	dWE(1).Potential/dt < 1E-06 V/s
13.0447	0.0255707	11.5	116	0.000228894
13.1447	0.0255615	11.6	117	-0.000295037	dWE(1).Potential/dt < 1E-06 V/s
13.2447	0.0255585	11.7	118	8.13976e-05
13.3447	0.0255737	11.8	119	0.000284823
13.4447	0.0255615	11.9	120	-0.000412005	dWE(1).Potential/dt < 1E-06 V/s
13.5447	0.0255615	12	121	0.000193268
13.6447	0.0255585	12.1	122	-9.6634e-05	dWE(1).Potential/dt < 1E-06 V/s
13.7447	0.0255585	12.2	123	3.56013e-05
13.8447	0.0255585	12.3	124	-1.017e-05	dWE(1).Potential/dt < 1E-06 V/s
13.9447	0.0255615	12.4	125	5.5929e-05
14.0447	0.0255585	12.5	126	-9.15428e-05	dWE(1).Potential/dt < 1E-06 V/s
14.1447	0.0255524	12.6	127	-6.61363e-05	dWE(1).Potential/dt < 1E-06 V/s
14.2447	0.0255554	12.7	128	0.000117036
14.3447	0.0255493	12.8	129	-0.000167862	dWE(1).Potential/dt < 1E-06 V/s
14.4447	0.0255493	12.9	130	8.13665e-05
14.5447	0.0255493	13	131	-2.03525e-05	dWE(1).Potential/dt < 1E-06 V/s
14.6447	0.0255524	13.1	132	5.59228e-05
14.7447	0.0255463	13.2	133	-0.000147478	dWE(1).Potential/dt < 1E-06 V/s
14.8447	0.0255463	13.3	134	8.13541e-05
14.9447	0.0255493	13.4	135	3.562e-05
15.0447	0.0255463	13.5	136	-9.16049e-05	dWE(1).Potential/dt < 1E-06 V/s
15.1447	0.0255493	13.6	137	0.000101762
15.2447	0.0255524	13.7	138	1.01266e-05
15.3447	0.0255402	13.8	139	-0.00024916	dWE(1).Potential/dt < 1E-06 V/s
15.4447	0.0255463	13.9	140	0.00026444
15.5447	0.0255432	14	141	-0.00016783	dWE(1).Potential/dt < 1E-06 V/s
15.6447	0.0255402	14.1	142	1.24176e-08	dWE(1).Potential/dt < 1E-06 V/s
15.7447	0.0255432	14.2	143	8.13727e-05
15.8447	0.0255371	14.3	144	-0.000157679	dWE(1).Potential/dt < 1E-06 V/s
15.9447	0.0255402	14.4	145	0.000137376
16.0447	0.0255402	14.5	146	-5.59538e-05	dWE(1).Potential/dt < 1E-06 V/s
16.1447	0.0255341	14.6	147	-0.000101719	dWE(1).Potential/dt < 1E-06 V/s
16.2447	0.0255371	14.7	148	0.000127119
16.3447	0.025528	14.8	149	-0.000223753	dWE(1).Potential/dt < 1E-06 V/s
16.4447	0.025528	14.9	150	0.000116968
16.5447	0.0255371	15	151	0.00013732
16.6447	0.025528	15.1	152	-0.000274628	dWE(1).Potential/dt < 1E-06 V/s
16.7447	0.025531	15.2	153	0.000193243
16.8447	0.025528	15.3	154	-0.000122059	dWE(1).Potential/dt < 1E-06 V/s
16.9447	0.0255341	15.4	155	0.000157679
17.0447	0.025528	15.5	156	-0.000193305	dWE(1).Potential/dt < 1E-06 V/s
17.1447	0.0255219	15.6	157	-2.03401e-05	dWE(1).Potential/dt < 1E-06 V/s
17.2447	0.0255341	15.7	158	0.000274697
17.3447	0.0255188	15.8	159	-0.00044254	dWE(1).Potential/dt < 1E-06 V/s
17.4447	0.0255249	15.9	160	0.000330613
17.5447	0.025528	16	161	-6.61177e-05	dWE(1).Potential/dt < 1E-06 V/s
17.6447	0.0255188	16.1	162	-0.000183092	dWE(1).Potential/dt < 1E-06 V/s
17.7447	0.0255157	16.2	163	6.0983e-05
17.8447	0.025528	16.3	164	0.000228907
17.9447	0.0255249	16.4	165	-0.000208523	dWE(1).Potential/dt < 1E-06 V/s
18.0447	0.0255249	16.5	166	7.63063e-05
18.1447	0.0255219	16.6	167	-6.61363e-05	dWE(1).Potential/dt < 1E-06 V/s
18.2447	0.0255157	16.7	168	-7.62815e-05	dWE(1).Potential/dt < 1E-06 V/s
18.3447	0.0255127	16.8	169	5.07881e-06
18.4447	0.0255157	16.9	170	7.11841e-05
18.5447	0.0255127	17	171	-0.000101713	dWE(1).Potential/dt < 1E-06 V/s
18.6447	0.0255157	17.1	172	0.0001017
18.7447	0.0255188	17.2	173	1.01949e-05
18.8447	0.0255157	17.3	174	-8.14348e-05	dWE(1).Potential/dt < 1E-06 V/s
18.9447	0.0255188	17.4	175	0.000101762
19.0447	0.0255127	17.5	176	-0.00015771	dWE(1).Potential/dt < 1E-06 V/s
19.1447	0.0255096	17.6	177	2.54686e-05
19.2447	0.0255066	17.7	178	-4.07112e-05	dWE(1).Potential/dt < 1E-06 V/s
19.3447	0.0255096	17.8	179	8.14348e-05
19.4447	0.0255096	17.9	180	-4.57838e-05	dWE(1).Potential/dt < 1E-06 V/s
19.5447	0.0255096	18	181	1.01887e-05
19.6447	0.0255035	18.1	182	-0.000111895	dWE(1).Potential/dt < 1E-06 V/s
19.7447	0.0254974	18.2	183	-4.07174e-05	dWE(1).Potential/dt < 1E-06 V/s
19.8447	0.0255066	18.3	184	0.000218712
19.9447	0.0254974	18.4	185	-0.000294975	dWE(1).Potential/dt < 1E-06 V/s
20.0447	0.0255005	18.5	186	0.000193243
20.1447	0.0254913	18.6	187	-0.000233967	dWE(1).Potential/dt < 1E-06 V/s
20.2447	0.0254913	18.7	188	0.000116999
20.3447	0.0254944	18.8	189	2.54686e-05
20.4447	0.0254913	18.9	190	-9.15862e-05	dWE(1).Potential/dt < 1E-06 V/s
20.5447	0.0255005	19	191	0.000213639
20.6447	0.0254944	19.1	192	-0.000228869	dWE(1).Potential/dt < 1E-06 V/s
20.7447	0.0254883	19.2	193	-1.01762e-05	dWE(1).Potential/dt < 1E-06 V/s
20.8447	0.0254944	19.3	194	0.000162758
20.9447	0.0254852	19.4	195	-0.000259417	dWE(1).Potential/dt < 1E-06 V/s
21.0447	0.0254913	19.5	196	0.000239058
21.1447	0.0254883	19.6	197	-0.000157642	dWE(1).Potential/dt < 1E-06 V/s
21.2447	0.0254913	19.7	198	0.000111846
21.3447	0.0254913	19.8	199	-4.57403e-05	dWE(1).Potential/dt < 1E-06 V/s
21.4447	0.0254944	19.9	200	6.61549e-05
21.5447	0.0254913	20	201	-9.15862e-05	dWE(1).Potential/dt < 1E-06 V/s
21.6447	0.0254944	20.1	202	0.000101781
21.7447	0.0254883	20.2	203	-0.000157691	dWE(1).Potential/dt < 1E-06 V/s
21.8447	0.0254791	20.3	204	-8.64702e-05	dWE(1).Potential/dt < 1E-06 V/s
21.9447	0.0254883	20.4	205	0.000254326
22.0447	0.0254822	20.5	206	-0.000249253	dWE(1).Potential/dt < 1E-06 V/s
22.1447	0.0254791	20.6	207	4.58086e-05
22.2447	0.0254852	20.7	208	0.000127126
22.3447	0.0254852	20.8	209	-8.13852e-05	dWE(1).Potential/dt < 1E-06 V/s
22.4447	0.0254822	20.9	210	-3.56013e-05	dWE(1).Potential/dt < 1E-06 V/s
22.5447	0.0254791	21	211	-2.03277e-05	dWE(1).Potential/dt < 1E-06 V/s
22.6447	0.0254791	21.1	212	2.54437e-05
22.7447	0.02547	21.2	213	-0.000178044	dWE(1).Potential/dt < 1E-06 V/s
22.8447	0.0254761	21.3	214	0.000218712
22.9447	0.0254822	21.4	215	1.01949e-05
23.0447	0.0254822	21.5	216	-5.0875e-05	dWE(1).Potential/dt < 1E-06 V/s
23.1447	0.0254761	21.6	217	-9.15614e-05	dWE(1).Potential/dt < 1E-06 V/s
23.2447	0.025473	21.7	218	1.52985e-05
23.3447	0.025473	21.8	219	1.5224e-05
23.4447	0.0254761	21.9	220	4.57528e-05
23.5447	0.0254761	22	221	-3.55703e-05	dWE(1).Potential/dt < 1E-06 V/s
23.6447	0.025473	22.1	222	-4.57528e-05	dWE(1).Potential/dt < 1E-06 V/s
23.7447	0.0254608	22.2	223	-0.000188245	dWE(1).Potential/dt < 1E-06 V/s
23.8447	0.0254761	22.3	224	0.000412023
23.9447	0.025473	22.4	225	-0.000274635	dWE(1).Potential/dt < 1E-06 V/s
24.0447	0.0254791	22.5	226	0.000198341
24.1447	0.02547	22.6	227	-0.00024924	dWE(1).Potential/dt < 1E-06 V/s
24.2447	0.0254669	22.7	228	7.12213e-05
24.3447	0.0254669	22.8	229	5.07881e-06
24.4447	0.025473	22.9	230	0.000101738
24.5447	0.0254669	23	231	-0.000183135	dWE(1).Potential/dt < 1E-06 V/s
24.6447	0.0254639	23.1	232	3.56386e-05
24.7447	0.0254578	23.2	233	-9.66402e-05	dWE(1).Potential/dt < 1E-06 V/s
24.8447	0.0254608	23.3	234	0.000116949
24.9447	0.0254578	23.4	235	-0.000111846	dWE(1).Potential/dt < 1E-06 V/s
25.0447	0.0254639	23.5	236	0.000157648
25.1447	0.0254608	23.6	237	-0.000137333	dWE(1).Potential/dt < 1E-06 V/s
25.2447	0.0254547	23.7	238	-5.59352e-05	dWE(1).Potential/dt < 1E-06 V/s
25.3447	0.0254547	23.8	239	6.10078e-05
25.4447	0.0254578	23.9	240	3.562e-05
25.5447	0.0254547	24	241	-9.16049e-05	dWE(1).Potential/dt < 1E-06 V/s
25.6447	0.0254547	24.1	242	4.57838e-05
25.7447	0.0254547	24.2	243	-1.01887e-05	dWE(1).Potential/dt < 1E-06 V/s
25.8447	0.0254578	24.3	244	5.59663e-05
25.9447	0.0254578	24.4	245	-3.56262e-05	dWE(1).Potential/dt < 1E-06 V/s
26.0447	0.0254486	24.5	246	-0.000157667	dWE(1).Potential/dt < 1E-06 V/s
26.1447	0.0254517	24.6	247	0.000162764
26.2447	0.0254547	24.7	248	-1.01887e-05	dWE(1).Potential/dt < 1E-06 V/s
26.3447	0.0254578	24.8	249	3.0535e-05
26.4447	0.0254578	24.9	250	-2.54561e-05	dWE(1).Potential/dt < 1E-06 V/s
26.5447	0.0254517	25	251	-0.000101738	dWE(1).Potential/dt < 1E-06 V/s
26.6447	0.0254425	25.1	252	-9.66154e-05	dWE(1).Potential/dt < 1E-06 V/s
26.7447	0.0254486	25.2	253	0.000198353
26.8447	0.0254486	25.3	254	-0.0001017	dWE(1).Potential/dt < 1E-06 V/s
26.9447	0.0254425	25.4	255	-9.1549e-05	dWE(1).Potential/dt < 1E-06 V/s
27.0447	0.0254395	25.5	256	1.52116e-05
27.1447	0.0254486	25.6	257	0.000183148
27.2447	0.0254364	25.7	258	-0.000340796	dWE(1).Potential/dt < 1E-06 V/s
27.3447	0.0254456	25.8	259	0.000340777
27.4447	0.0254425	25.9	260	-0.000203413	dWE(1).Potential/dt < 1E-06 V/s
27.5447	0.0254425	26	261	6.60866e-05
27.6447	0.0254395	26.1	262	-6.61549e-05	dWE(1).Potential/dt < 1E-06 V/s
27.7447	0.0254364	26.2	263	-2.03215e-05	dWE(1).Potential/dt < 1E-06 V/s
27.8447	0.0254364	26.3	264	2.54251e-05
27.9447	0.0254395	26.4	265	4.5759e-05
28.0447	0.0254364	26.5	266	-9.15428e-05	dWE(1).Potential/dt < 1E-06 V/s
28.1447	0.0254364	26.6	267	4.57714e-05
28.2447	0.0254333	26.7	268	-6.60991e-05	dWE(1).Potential/dt < 1E-06 V/s
28.3447	0.0254333	26.8	269	3.56138e-05
28.4447	0.0254303	26.9	270	-6.61363e-05	dWE(1).Potential/dt < 1E-06 V/s
28.5447	0.0254242	27	271	-7.62815e-05	dWE(1).Potential/dt < 1E-06 V/s
28.6447	0.0254364	27.1	272	0.000284823
28.7447	0.0254333	27.2	273	-0.000218693	dWE(1).Potential/dt < 1E-06 V/s
28.8447	0.0254333	27.3	274	7.63063e-05
28.9447	0.0254333	27.4	275	-1.01576e-05	dWE(1).Potential/dt < 1E-06 V/s
29.0447	0.0254303	27.5	276	-5.59663e-05	dWE(1).Potential/dt < 1E-06 V/s
29.1447	0.0254272	27.6	277	-2.03028e-05	dWE(1).Potential/dt < 1E-06 V/s
29.2447	0.0254272	27.7	278	2.53941e-05
29.3447	0.0254272	27.8	279	-1.01762e-05	dWE(1).Potential/dt < 1E-06 V/s
29.4447	0.0254211	27.9	280	-0.000111914	dWE(1).Potential/dt < 1E-06 V/s
29.5447	0.0254242	28	281	0.00012715
29.6447	0.0254272	28.1	282	1.86264e-08	dWE(1).Potential/dt < 1E-06 V/s
29.7447	0.0254303	28.2	283	3.04729e-05
29.8447	0.0254211	28.3	284	-0.000193231	dWE(1).Potential/dt < 1E-06 V/s
29.9447	0.0254181	28.4	285	6.10389e-05
30.0447	0.025415	28.5	286	-5.08812e-05	dWE(1).Potential/dt < 1E-06 V/s
30.1447	0.0254272	28.6	287	0.000249272
30.2447	0.0254242	28.7	288	-0.000208604	dWE(1).Potential/dt < 1E-06 V/s
30.3447	0.0254211	28.8	289	2.03711e-05
30.4447	0.0254211	28.9	290	2.54251e-05
30.5447	0.0254242	29	291	4.5759e-05
30.6447	0.0254211	29.1	292	-9.15428e-05	dWE(1).Potential/dt < 1E-06 V/s
30.7447	0.025412	29.2	293	-0.000122065	dWE(1).Potential/dt < 1E-06 V/s
30.8447	0.0254242	29.3	294	0.000320387
30.9447	0.025412	29.4	295	-0.000396694	dWE(1).Potential/dt < 1E-06 V/s
31.0447	0.0254211	29.5	296	0.000350916
31.1447	0.025415	29.6	297	-0.000259392	dWE(1).Potential/dt < 1E-06 V/s
31.2447	0.025412	29.7	298	4.58148e-05
31.3447	0.025415	29.8	299	7.1153e-05
31.4447	0.025415	29.9	300	-4.57403e-05	dWE(1).Potential/dt < 1E-06 V/s
31.5447	0.0254059	30	301	-0.00015766	dWE(1).Potential/dt < 1E-06 V/s
31.6447	0.025412	30.1	302	0.000218706
31.7447	0.0254089	30.2	303	-0.000157723	dWE(1).Potential/dt < 1E-06 V/s
31.8447	0.0254089	30.3	304	5.59538e-05
31.9447	0.0254089	30.4	305	-1.01887e-05	dWE(1).Potential/dt < 1E-06 V/s
32.0447	0.0254028	30.5	306	-0.00011187	dWE(1).Potential/dt < 1E-06 V/s
32.1447	0.0254059	30.6	307	0.000127144
32.2447	0.0253967	30.7	308	-0.000223778	dWE(1).Potential/dt < 1E-06 V/s
32.3447	0.0254028	30.8	309	0.000228869
32.4447	0.0254059	30.9	310	-4.57714e-05	dWE(1).Potential/dt < 1E-06 V/s
32.5447	0.0254028	31	311	-7.11841e-05	dWE(1).Potential/dt < 1E-06 V/s
32.6447	0.0254059	31.1	312	0.000101713
32.7447	0.0254059	31.2	313	-4.57714e-05	dWE(1).Potential/dt < 1E-06 V/s
32.8447	0.0253967	31.3	314	-0.000157667	dWE(1).Potential/dt < 1E-06 V/s
32.9447	0.0253967	31.4	315	0.000106792
33.0447	0.0253998	31.5	316	2.54065e-05
33.1447	0.0254059	31.6	317	7.63374e-05
33.2447	0.0254089	31.7	318	-5.12227e-06	dWE(1).Potential/dt < 1E-06 V/s
33.3447	0.0253998	31.8	319	-0.000183104	dWE(1).Potential/dt < 1E-06 V/s
33.4447	0.0253998	31.9	320	0.000116999
33.5447	0.0253967	32	321	-8.64391e-05	dWE(1).Potential/dt < 1E-06 V/s
33.6447	0.0254059	32.1	322	0.000203407
33.7447	0.0253998	32.2	323	-0.000228876	dWE(1).Potential/dt < 1E-06 V/s
33.8447	0.0253937	32.3	324	-1.01638e-05	dWE(1).Potential/dt < 1E-06 V/s
33.9447	0.0253998	32.4	325	0.000162745
34.0447	0.0253967	32.5	326	-0.000147466	dWE(1).Potential/dt < 1E-06 V/s
34.1447	0.0253967	32.6	327	5.59166e-05
34.2447	0.0253937	32.7	328	-6.61549e-05	dWE(1).Potential/dt < 1E-06 V/s
34.3447	0.0253998	32.8	329	0.000147515
34.4447	0.0253876	32.9	330	-0.000305132	dWE(1).Potential/dt < 1E-06 V/s
34.5447	0.0253906	33	331	0.000218687
34.6447	0.0254028	33.1	332	0.000147528
34.7447	0.0253845	33.2	333	-0.000467958	dWE(1).Potential/dt < 1E-06 V/s
34.8447	0.0253937	33.3	334	0.000422175
34.9447	0.0253906	33.4	335	-0.000223803	dWE(1).Potential/dt < 1E-06 V/s
35.0447	0.0253937	33.5	336	0.000122047
35.1447	0.0253906	33.6	337	-0.000101713	dWE(1).Potential/dt < 1E-06 V/s
35.2447	0.0253815	33.7	338	-0.000122065	dWE(1).Potential/dt < 1E-06 V/s
35.3447	0.0253906	33.8	339	0.000264458
35.4447	0.0253876	33.9	340	-0.000193243	dWE(1).Potential/dt < 1E-06 V/s
35.5447	0.0253906	34	341	0.000122059
35.6447	0.0253845	34.1	342	-0.000157679	dWE(1).Potential/dt < 1E-06 V/s
35.7447	0.0253815	34.2	343	2.54686e-05
35.8447	0.0253876	34.3	344	0.000127132
35.9447	0.0253845	34.4	345	-0.000137333	dWE(1).Potential/dt < 1E-06 V/s
36.0447	0.0253754	34.5	346	-0.000111864	dWE(1).Potential/dt < 1E-06 V/s
36.1447	0.0253723	34.6	347	4.06926e-05
36.2447	0.0253784	34.7	348	0.000116955
36.3447	0.0253815	34.8	349	-2.54065e-05	dWE(1).Potential/dt < 1E-06 V/s
36.4447	0.0253815	34.9	350	-1.52861e-05	dWE(1).Potential/dt < 1E-06 V/s
36.5447	0.0253754	35	351	-0.000101738	dWE(1).Potential/dt < 1E-06 V/s
36.6447	0.0253754	35.1	352	7.12213e-05
36.7447	0.0253815	35.2	353	9.15614e-05
36.8447	0.0253815	35.3	354	-7.12275e-05	dWE(1).Potential/dt < 1E-06 V/s
36.9447	0.0253845	35.4	355	7.62691e-05
37.0447	0.0253815	35.5	356	-9.14993e-05	dWE(1).Potential/dt < 1E-06 V/s
37.1447	0.0253754	35.6	357	-6.61673e-05	dWE(1).Potential/dt < 1E-06 V/s
37.2447	0.0253723	35.7	358	5.12227e-06
37.3447	0.0253693	35.8	359	-4.07112e-05	dWE(1).Potential/dt < 1E-06 V/s
37.4447	0.0253784	35.9	360	0.000193293
37.5447	0.0253693	36	361	-0.000284848	dWE(1).Potential/dt < 1E-06 V/s
37.6447	0.0253723	36.1	362	0.000193324
37.7447	0.0253723	36.2	363	-6.61239e-05	dWE(1).Potential/dt < 1E-06 V/s
37.8447	0.0253662	36.3	364	-0.000101719	dWE(1).Potential/dt < 1E-06 V/s
37.9447	0.0253723	36.4	365	0.000183098
38.0447	0.0253693	36.5	366	-0.000147509	dWE(1).Potential/dt < 1E-06 V/s
38.1447	0.0253693	36.6	367	5.59725e-05
38.2447	0.0253754	36.7	368	0.000101738
38.3447	0.0253662	36.8	369	-0.000239058	dWE(1).Potential/dt < 1E-06 V/s
38.4447	0.0253662	36.9	370	0.000127138
38.5447	0.0253693	37	371	2.54065e-05
38.6447	0.0253662	37.1	372	-9.14993e-05	dWE(1).Potential/dt < 1E-06 V/s
38.7447	0.0253693	37.2	373	0.000101669
38.8447	0.0253693	37.3	374	-4.57403e-05	dWE(1).Potential/dt < 1E-06 V/s
38.9447	0.0253693	37.4	375	1.01762e-05
39.0447	0.0253601	37.5	376	-0.00016783	dWE(1).Potential/dt < 1E-06 V/s
39.1447	0.0253571	37.6	377	5.08688e-05
39.2447	0.0253601	37.7	378	6.10265e-05
39.3447	0.0253632	37.8	379	1.01576e-05
39.4447	0.0253662	37.9	380	3.0535e-05
39.5447	0.0253693	38	381	3.04729e-05
39.6447	0.0253662	38.1	382	-8.13231e-05	dWE(1).Potential/dt < 1E-06 V/s
39.7447	0.0253601	38.2	383	-6.61673e-05	dWE(1).Potential/dt < 1E-06 V/s
39.8447	0.0253601	38.3	384	6.10513e-05
39.9447	0.0253571	38.4	385	-7.62753e-05	dWE(1).Potential/dt < 1E-06 V/s
40.0447	0.0253601	38.5	386	9.15428e-05
40.1447	0.0253601	38.6	387	-4.57714e-05	dWE(1).Potential/dt < 1E-06 V/s
40.2447	0.0253632	38.7	388	6.60991e-05
40.3447	0.025351	38.8	389	-0.000259379	dWE(1).Potential/dt < 1E-06 V/s
40.4447	0.0253601	38.9	390	0.0003204
40.5447	0.025354	39	391	-0.000259392	dWE(1).Potential/dt < 1E-06 V/s
40.6447	0.0253571	39.1	392	0.000157723
40.7447	0.0253571	39.2	393	-5.59538e-05	dWE(1).Potential/dt < 1E-06 V/s
40.8447	0.025354	39.3	394	-4.579e-05	dWE(1).Potential/dt < 1E-06 V/s
40.9447	0.0253601	39.4	395	0.000147534
41.0447	0.025354	39.5	396	-0.000193305	dWE(1).Potential/dt < 1E-06 V/s
41.1447	0.025354	39.6	397	9.15738e-05
41.2447	0.0253448	39.7	398	-0.000188177	dWE(1).Potential/dt < 1E-06 V/s
41.3447	0.025351	39.8	399	0.000218706
41.4447	0.0253479	39.9	400	-0.000157723	dWE(1).Potential/dt < 1E-06 V/s
41.5447	0.0253479	40	401	5.59538e-05
41.6447	0.025351	40.1	402	4.579e-05
41.7447	0.0253418	40.2	403	-0.000203463	dWE(1).Potential/dt < 1E-06 V/s
41.8447	0.0253448	40.3	404	0.00017294
41.9447	0.0253418	40.4	405	-0.000122047	dWE(1).Potential/dt < 1E-06 V/s
42.0447	0.0253601	40.5	406	0.000381457
42.1447	0.0253448	40.6	407	-0.000503535	dWE(1).Potential/dt < 1E-06 V/s
42.2447	0.0253448	40.7	408	0.000239052
42.3447	0.0253448	40.8	409	-5.08626e-05	dWE(1).Potential/dt < 1E-06 V/s
42.4447	0.0253632	40.9	410	0.000335673
42.5447	0.0253418	41	411	-0.000605235	dWE(1).Potential/dt < 1E-06 V/s
42.6447	0.0253448	41.1	412	0.000366196
42.7447	0.0253448	41.2	413	-0.000106804	dWE(1).Potential/dt < 1E-06 V/s
42.8447	0.0253448	41.3	414	1.017e-05
42.9447	0.0253448	41.4	415	0	dWE(1).Potential/dt < 1E-06 V/s
43.0447	0.0253418	41.5	416	-5.5929e-05	dWE(1).Potential/dt < 1E-06 V/s
43.1447	0.0253357	41.6	417	-7.62939e-05	dWE(1).Potential/dt < 1E-06 V/s
43.2447	0.0253387	41.7	418	0.000116949
43.3447	0.0253357	41.8	419	-0.000111846	dWE(1).Potential/dt < 1E-06 V/s
43.4447	0.0253387	41.9	420	0.000101669
43.5447	0.0253448	42	421	6.61673e-05
43.6447	0.0253387	42.1	422	-0.000172959	dWE(1).Potential/dt < 1E-06 V/s
43.7447	0.0253326	42.2	423	-2.03339e-05	dWE(1).Potential/dt < 1E-06 V/s
43.8447	0.0253387	42.3	424	0.000162745
43.9447	0.0253448	42.4	425	2.03711e-05
44.0447	0.0253387	42.5	426	-0.000162783	dWE(1).Potential/dt < 1E-06 V/s
44.1447	0.0253296	42.6	427	-7.62629e-05	dWE(1).Potential/dt < 1E-06 V/s
44.2447	0.0253387	42.7	428	0.000254288
44.3447	0.0253357	42.8	429	-0.000193237	dWE(1).Potential/dt < 1E-06 V/s
44.4447	0.0253387	42.9	430	0.000122016
44.5447	0.0253235	43	431	-0.000325485	dWE(1).Potential/dt < 1E-06 V/s
44.6447	0.0253357	43.1	432	0.000412011
44.7447	0.0253326	43.2	433	-0.00024929	dWE(1).Potential/dt < 1E-06 V/s
44.8447	0.0253296	43.3	434	2.03711e-05
44.9447	0.0253265	43.4	435	-3.05039e-05	dWE(1).Potential/dt < 1E-06 V/s
45.0447	0.0253265	43.5	436	2.54437e-05
45.1447	0.0253296	43.6	437	4.57714e-05
45.2447	0.0253235	43.7	438	-0.000147509	dWE(1).Potential/dt < 1E-06 V/s
45.3447	0.0253265	43.8	439	0.000137376
45.4447	0.0253296	43.9	440	-2.48353e-08	dWE(1).Potential/dt < 1E-06 V/s
45.5447	0.0253265	44	441	-8.13541e-05	dWE(1).Potential/dt < 1E-06 V/s
45.6447	0.0253296	44.1	442	0.000101713
45.7447	0.0253265	44.2	443	-0.0001017	dWE(1).Potential/dt < 1E-06 V/s
45.8447	0.0253204	44.3	444	-6.61239e-05	dWE(1).Potential/dt < 1E-06 V/s
45.9447	0.0253296	44.4	445	0.000228857
46.0447	0.0253235	44.5	446	-0.000239052	dWE(1).Potential/dt < 1E-06 V/s
46.1447	0.0253204	44.6	447	4.58148e-05
46.2447	0.0253204	44.7	448	1.5224e-05
46.3447	0.0253265	44.8	449	0.000101731
46.4447	0.0253204	44.9	450	-0.000183092	dWE(1).Potential/dt < 1E-06 V/s
46.5447	0.0253296	45	451	0.000259373
46.6447	0.0253235	45.1	452	-0.000239052	dWE(1).Potential/dt < 1E-06 V/s
46.7447	0.0253204	45.2	453	4.58148e-05
46.8447	0.0253235	45.3	454	7.1153e-05
46.9447	0.0253143	45.4	455	-0.000213577	dWE(1).Potential/dt < 1E-06 V/s
47.0447	0.0253235	45.5	456	0.000284805
47.1447	0.0253143	45.6	457	-0.000305145	dWE(1).Potential/dt < 1E-06 V/s
47.2447	0.0253143	45.7	458	0.000137314
47.3447	0.0253204	45.8	459	8.13914e-05
47.4447	0.0253174	45.9	460	-0.000127206	dWE(1).Potential/dt < 1E-06 V/s
47.5447	0.0253204	46	461	0.000111933
47.6447	0.0253174	46.1	462	-0.000101781	dWE(1).Potential/dt < 1E-06 V/s
47.7447	0.0253143	46.2	463	-1.01452e-05	dWE(1).Potential/dt < 1E-06 V/s
47.8447	0.0253174	46.3	464	8.13541e-05
47.9447	0.0253235	46.4	465	6.61239e-05
48.0447	0.0253143	46.5	466	-0.000228857	dWE(1).Potential/dt < 1E-06 V/s
48.1447	0.0253143	46.6	467	0.000127144
48.2447	0.0253174	46.7	468	2.54127e-05
48.3447	0.0253174	46.8	469	-3.56138e-05	dWE(1).Potential/dt < 1E-06 V/s
48.4447	0.0253143	46.9	470	-4.57714e-05	dWE(1).Potential/dt < 1E-06 V/s
48.5447	0.0253082	47	471	-7.63063e-05	dWE(1).Potential/dt < 1E-06 V/s
48.6447	0.0253113	47.1	472	0.000117036
48.7447	0.0253113	47.2	473	-5.59538e-05	dWE(1).Potential/dt < 1E-06 V/s
48.8447	0.0253052	47.3	474	-0.000101719	dWE(1).Potential/dt < 1E-06 V/s
48.9447	0.0253143	47.4	475	0.000239027
49.0447	0.0253082	47.5	476	-0.000239052	dWE(1).Potential/dt < 1E-06 V/s
49.1447	0.0253113	47.6	477	0.000157723
49.2447	0.0253082	47.7	478	-0.000111933	dWE(1).Potential/dt < 1E-06 V/s
49.3447	0.0253174	47.8	479	0.000213639
49.4447	0.0253021	47.9	480	-0.000396756	dWE(1).Potential/dt < 1E-06 V/s
49.5447	0.0253082	48	481	0.000320431
49.6447	0.0253052	48.1	482	-0.000177982	dWE(1).Potential/dt < 1E-06 V/s
49.7447	0.0253052	48.2	483	5.59166e-05
49.8447	0.0253052	48.3	484	-1.01762e-05	dWE(1).Potential/dt < 1E-06 V/s
49.9447	0.0253082	48.4	485	5.59228e-05
50.0447	0.0253021	48.5	486	-0.000147478	dWE(1).Potential/dt < 1E-06 V/s
50.1447	0.0253052	48.6	487	0.000137333
50.2447	0.0253021	48.7	488	-0.000111951	dWE(1).Potential/dt < 1E-06 V/s
50.3447	0.0253021	48.8	489	4.57838e-05
50.4447	0.0253021	48.9	490	-1.01887e-05	dWE(1).Potential/dt < 1E-06 V/s
50.5447	0.0253052	49	491	5.59663e-05
50.6447	0.025296	49.1	492	-0.000203463	dWE(1).Potential/dt < 1E-06 V/s
50.7447	0.0253021	49.2	493	0.000228869
50.8447	0.025296	49.3	494	-0.000213589	dWE(1).Potential/dt < 1E-06 V/s
50.9447	0.0252991	49.4	495	0.000147484
51.0447	0.0253021	49.5	496	-1.24176e-08	dWE(1).Potential/dt < 1E-06 V/s
51.1447	0.0253082	49.6	497	8.6464e-05
51.2447	0.0252991	49.7	498	-0.000228857	dWE(1).Potential/dt < 1E-06 V/s
51.3447	0.025296	49.8	499	7.12151e-05
51.4447	0.0252899	49.9	500	-0.00010681	dWE(1).Potential/dt < 1E-06 V/s
51.5447	0.0252991	50	501	0.000228857
51.6447	0.0252991	50.1	502	-0.000127144	dWE(1).Potential/dt < 1E-06 V/s
51.7447	0.025293	50.2	503	-8.13914e-05	dWE(1).Potential/dt < 1E-06 V/s
51.8447	0.025296	50.3	504	0.000127206
51.9447	0.025296	50.4	505	-5.59538e-05	dWE(1).Potential/dt < 1E-06 V/s
52.0447	0.0252991	50.5	506	6.61177e-05
52.1447	0.0252991	50.6	507	-3.56013e-05	dWE(1).Potential/dt < 1E-06 V/s
52.2447	0.025293	50.7	508	-0.000101738	dWE(1).Potential/dt < 1E-06 V/s
52.3447	0.025296	50.8	509	0.000127206
52.4447	0.0252899	50.9	510	-0.000167862	dWE(1).Potential/dt < 1E-06 V/s
52.5447	0.0252899	51	511	8.13665e-05
52.6447	0.0252899	51.1	512	-2.03525e-05	dWE(1).Potential/dt < 1E-06 V/s
52.7447	0.025293	51.2	513	5.59228e-05
52.8447	0.025296	51.3	514	2.04084e-05
52.9447	0.0252838	51.4	515	-0.000249253	dWE(1).Potential/dt < 1E-06 V/s
53.0447	0.0252869	51.5	516	0.000208523
53.1447	0.0252808	51.6	517	-0.000188164	dWE(1).Potential/dt < 1E-06 V/s
53.2447	0.0252899	51.7	518	0.000249222
53.3447	0.0252808	51.8	519	-0.000295006	dWE(1).Potential/dt < 1E-06 V/s
53.4447	0.0252869	51.9	520	0.000249209
53.5447	0.0252869	52	521	-0.000101731	dWE(1).Potential/dt < 1E-06 V/s
53.6447	0.025296	52.1	522	0.000188214
53.7447	0.0252899	52.2	523	-0.000218712	dWE(1).Potential/dt < 1E-06 V/s
53.8447	0.0252869	52.3	524	4.57341e-05
53.9447	0.0252899	52.4	525	7.12399e-05
54.0447	0.0252838	52.5	526	-0.00015771	dWE(1).Potential/dt < 1E-06 V/s
54.1447	0.0252869	52.6	527	0.000137327
54.2447	0.0252838	52.7	528	-0.000111889	dWE(1).Potential/dt < 1E-06 V/s
54.3447	0.0252808	52.8	529	-1.01576e-05	dWE(1).Potential/dt < 1E-06 V/s
54.4447	0.0252838	52.9	530	8.13727e-05
54.5447	0.0252869	53	531	1.01576e-05
54.6447	0.0252808	53.1	532	-0.000137302	dWE(1).Potential/dt < 1E-06 V/s
54.7447	0.0252838	53.2	533	0.000137314
54.8447	0.0252838	53.3	534	-5.59414e-05	dWE(1).Potential/dt < 1E-06 V/s
54.9447	0.0252808	53.4	535	-4.5759e-05	dWE(1).Potential/dt < 1E-06 V/s
55.0447	0.0252777	53.5	536	-2.03649e-05	dWE(1).Potential/dt < 1E-06 V/s
55.1447	0.0252716	53.6	537	-8.64516e-05	dWE(1).Potential/dt < 1E-06 V/s
55.2447	0.0252808	53.7	538	0.000228894
55.3447	0.0252838	53.8	539	-7.12213e-05	dWE(1).Potential/dt < 1E-06 V/s
55.4447	0.0252777	53.9	540	-0.000116987	dWE(1).Potential/dt < 1E-06 V/s
55.5447	0.0252777	54	541	8.13976e-05
55.6447	0.0252777	54.1	542	-2.03401e-05	dWE(1).Potential/dt < 1E-06 V/s
55.7447	0.0252777	54.2	543	6.20882e-09	dWE(1).Potential/dt < 1E-06 V/s
55.8447	0.0252686	54.3	544	-0.00016783	dWE(1).Potential/dt < 1E-06 V/s
55.9447	0.0252777	54.4	545	0.000274635
56.0447	0.0252747	54.5	546	-0.000193237	dWE(1).Potential/dt < 1E-06 V/s
56.1447	0.0252716	54.6	547	1.0108e-05
56.2447	0.0252716	54.7	548	2.54375e-05
56.3447	0.0252747	54.8	549	4.579e-05
56.4447	0.0252747	54.9	550	-3.56262e-05	dWE(1).Potential/dt < 1E-06 V/s
56.5447	0.0252747	55	551	1.017e-05
56.6447	0.0252747	55.1	552	-6.20882e-09	dWE(1).Potential/dt < 1E-06 V/s
56.7447	0.0252747	55.2	553	-6.20882e-09	dWE(1).Potential/dt < 1E-06 V/s
56.8447	0.0252777	55.3	554	5.59228e-05
56.9447	0.0252777	55.4	555	-3.55703e-05	dWE(1).Potential/dt < 1E-06 V/s
57.0447	0.0252747	55.5	556	-4.57528e-05	dWE(1).Potential/dt < 1E-06 V/s
57.1447	0.0252777	55.6	557	9.14993e-05
57.2447	0.0252716	55.7	558	-0.000157648	dWE(1).Potential/dt < 1E-06 V/s
57.3447	0.0252625	55.8	559	-8.64826e-05	dWE(1).Potential/dt < 1E-06 V/s
57.4447	0.0252747	55.9	560	0.000310298
57.5447	0.0252747	56	561	-0.000172965	dWE(1).Potential/dt < 1E-06 V/s
57.6447	0.0252747	56.1	562	4.06864e-05
57.7447	0.0252716	56.2	563	-5.59849e-05	dWE(1).Potential/dt < 1E-06 V/s
57.8447	0.0252655	56.3	564	-7.62505e-05	dWE(1).Potential/dt < 1E-06 V/s
57.9447	0.0252686	56.4	565	0.000116968
58.0447	0.0252655	56.5	566	-0.00011187	dWE(1).Potential/dt < 1E-06 V/s
58.1447	0.0252686	56.6	567	0.000101713
58.2447	0.0252655	56.7	568	-0.0001017	dWE(1).Potential/dt < 1E-06 V/s
58.3447	0.0252655	56.8	569	4.57838e-05
58.4447	0.0252625	56.9	570	-6.61363e-05	dWE(1).Potential/dt < 1E-06 V/s
58.5447	0.0252594	57	571	-2.03028e-05	dWE(1).Potential/dt < 1E-06 V/s
58.6447	0.0252686	57.1	572	0.000193231
58.7447	0.0252686	57.2	573	-0.000116968	dWE(1).Potential/dt < 1E-06 V/s
58.8447	0.0252655	57.3	574	-2.54127e-05	dWE(1).Potential/dt < 1E-06 V/s
58.9447	0.0252563	57.4	575	-0.000132273	dWE(1).Potential/dt < 1E-06 V/s
59.0447	0.0252563	57.5	576	9.6634e-05
59.1447	0.0252686	57.6	577	0.00019328
59.2447	0.0252594	57.7	578	-0.000310255	dWE(1).Potential/dt < 1E-06 V/s
59.3447	0.0252625	57.8	579	0.000203413
59.4447	0.0252625	57.9	580	-6.60866e-05	dWE(1).Potential/dt < 1E-06 V/s
59.5447	0.0252625	58	581	1.01762e-05
59.6447	0.0252533	58.1	582	-0.00016783	dWE(1).Potential/dt < 1E-06 V/s
59.7447	0.0252563	58.2	583	0.000162727
59.8447	0.0252533	58.3	584	-0.000122059	dWE(1).Potential/dt < 1E-06 V/s
59.9447	0.0252533	58.4	585	4.57714e-05
60.0447	0.0252594	58.5	586	0.000101738
60.1447	0.0252563	58.6	587	-0.000127206	dWE(1).Potential/dt < 1E-06 V/s
60.2447	0.0252533	58.7	588	2.48353e-08	dWE(1).Potential/dt < 1E-06 V/s
60.3447	0.0252563	58.8	589	8.13541e-05
60.4447	0.0252502	58.9	590	-0.000157642	dWE(1).Potential/dt < 1E-06 V/s
60.5447	0.0252594	59	591	0.000249222
60.6447	0.0252502	59.1	592	-0.000295006	dWE(1).Potential/dt < 1E-06 V/s
60.7447	0.0252594	59.2	593	0.000305188
60.8447	0.0252594	59.3	594	-0.000137345	dWE(1).Potential/dt < 1E-06 V/s
60.9447	0.0252563	59.4	595	-2.54686e-05	dWE(1).Potential/dt < 1E-06 V/s
61.0447	0.0252533	59.5	596	-2.03215e-05	dWE(1).Potential/dt < 1E-06 V/s
61.1447	0.0252502	59.6	597	-3.05039e-05	dWE(1).Potential/dt < 1E-06 V/s
61.2447	0.0252472	59.7	598	-3.0535e-05	dWE(1).Potential/dt < 1E-06 V/s
61.3447	0.0252625	59.8	599	0.000305201
61.4447	0.0252533	59.9	600	-0.000356026	dWE(1).Potential/dt < 1E-06 V/s
61.5447	0.0252502	60	601	0.000101731
61.6447	0.0252533	60.1	602	6.10265e-05
61.7447	0.0252502	60.2	603	-0.0001017	dWE(1).Potential/dt < 1E-06 V/s
61.8447	0.0252533	60.3	604	0.000101713
61.9447	0.0252472	60.4	605	-0.000157679	dWE(1).Potential/dt < 1E-06 V/s
62.0447	0.0252502	60.5	606	0.000137376
62.1447	0.0252563	60.6	607	5.59042e-05
62.2447	0.0252502	60.7	608	-0.000172897	dWE(1).Potential/dt < 1E-06 V/s
62.3447	0.0252472	60.8	609	3.55765e-05
62.4447	0.0252472	60.9	610	1.52861e-05
62.5447	0.0252533	61	611	0.000101738
62.6447	0.0252533	61.1	612	-7.12213e-05	dWE(1).Potential/dt < 1E-06 V/s
62.7447	0.0252502	61.2	613	-3.55827e-05	dWE(1).Potential/dt < 1E-06 V/s
62.8447	0.0252533	61.3	614	9.15428e-05
62.9447	0.0252502	61.4	615	-0.0001017	dWE(1).Potential/dt < 1E-06 V/s
63.0447	0.0252502	61.5	616	4.57838e-05
63.1447	0.0252472	61.6	617	-6.61363e-05	dWE(1).Potential/dt < 1E-06 V/s
63.2447	0.0252472	61.7	618	3.56262e-05
63.3447	0.0252441	61.8	619	-6.60991e-05	dWE(1).Potential/dt < 1E-06 V/s
63.4447	0.0252502	61.9	620	0.000147478
63.5447	0.0252472	62	621	-0.000137333	dWE(1).Potential/dt < 1E-06 V/s
63.6447	0.0252441	62.1	622	4.34617e-08	dWE(1).Potential/dt < 1E-06 V/s
63.7447	0.0252472	62.2	623	8.13231e-05
63.8447	0.0252472	62.3	624	-4.57403e-05	dWE(1).Potential/dt < 1E-06 V/s
63.9447	0.0252411	62.4	625	-0.000101731	dWE(1).Potential/dt < 1E-06 V/s
64.0447	0.0252472	62.5	626	0.000183092
64.1447	0.0252411	62.6	627	-0.000203444	dWE(1).Potential/dt < 1E-06 V/s
64.2447	0.0252472	62.7	628	0.000203438
64.3447	0.0252472	62.8	629	-9.15366e-05	dWE(1).Potential/dt < 1E-06 V/s
64.4447	0.0252411	62.9	630	-9.15552e-05	dWE(1).Potential/dt < 1E-06 V/s
64.5447	0.0252411	63	631	7.11841e-05
64.6447	0.025238	63.1	632	-7.62877e-05	dWE(1).Potential/dt < 1E-06 V/s
64.7447	0.0252319	63.2	633	-7.63063e-05	dWE(1).Potential/dt < 1E-06 V/s
64.8447	0.0252411	63.3	634	0.000228894
64.9447	0.025235	63.4	635	-0.000239039	dWE(1).Potential/dt < 1E-06 V/s
65.0447	0.025238	63.5	636	0.00015766
65.1447	0.0252441	63.6	637	5.59663e-05
65.2447	0.025238	63.7	638	-0.000172965	dWE(1).Potential/dt < 1E-06 V/s
65.3447	0.025235	63.8	639	3.56386e-05
65.4447	0.0252319	63.9	640	-4.07112e-05	dWE(1).Potential/dt < 1E-06 V/s
65.5447	0.025238	64	641	0.000137364
65.6447	0.0252319	64.1	642	-0.000193305	dWE(1).Potential/dt < 1E-06 V/s
65.7447	0.0252319	64.2	643	9.15738e-05
65.8447	0.025235	64.3	644	3.56386e-05
65.9447	0.0252228	64.4	645	-0.000259423	dWE(1).Potential/dt < 1E-06 V/s
66.0447	0.0252258	64.5	646	0.000208523
66.1447	0.0252167	64.6	647	-0.000244143	dWE(1).Potential/dt < 1E-06 V/s
66.2447	0.0252258	64.7	648	0.000284836
66.3447	0.0252258	64.8	649	-0.000137351	dWE(1).Potential/dt < 1E-06 V/s
66.4447	0.0252258	64.9	650	3.05039e-05
66.5447	0.0252289	65	651	5.59663e-05
66.6447	0.0252289	65.1	652	-3.56262e-05	dWE(1).Potential/dt < 1E-06 V/s
66.7447	0.0252319	65.2	653	6.60991e-05
66.8447	0.0252167	65.3	654	-0.000315315	dWE(1).Potential/dt < 1E-06 V/s
66.9447	0.0252167	65.4	655	0.000188195
67.0447	0.0252319	65.5	656	0.000228888
67.1447	0.0252258	65.6	657	-0.000289921	dWE(1).Potential/dt < 1E-06 V/s
67.2447	0.0252167	65.7	658	-4.579e-05	dWE(1).Potential/dt < 1E-06 V/s
67.3447	0.0252228	65.8	659	0.00019839
67.4447	0.0252228	65.9	660	-0.000101738	dWE(1).Potential/dt < 1E-06 V/s
67.5447	0.0252289	66	661	0.000132254
67.6447	0.0252289	66.1	662	-7.12275e-05	dWE(1).Potential/dt < 1E-06 V/s
67.7447	0.0252197	66.2	663	-0.000147497	dWE(1).Potential/dt < 1E-06 V/s
67.8447	0.0252167	66.3	664	5.08564e-05
67.9447	0.0252228	66.4	665	0.000117018
68.0447	0.0252258	66.5	666	-2.54686e-05	dWE(1).Potential/dt < 1E-06 V/s
68.1447	0.0252167	66.6	667	-0.000183104	dWE(1).Potential/dt < 1E-06 V/s
68.2447	0.0252136	66.7	668	6.10699e-05
68.3447	0.0252136	66.8	669	5.05398e-06
68.4447	0.0252167	66.9	670	4.57528e-05
68.5447	0.0252197	67	671	2.04084e-05
68.6447	0.0252167	67.1	672	-8.14162e-05	dWE(1).Potential/dt < 1E-06 V/s
68.7447	0.0252197	67.2	673	0.000101781
68.8447	0.0252197	67.3	674	-4.57838e-05	dWE(1).Potential/dt < 1E-06 V/s
68.9447	0.0252167	67.4	675	-4.579e-05	dWE(1).Potential/dt < 1E-06 V/s
69.0447	0.0252106	67.5	676	-7.62815e-05	dWE(1).Potential/dt < 1E-06 V/s
69.1447	0.0252167	67.6	677	0.000172916
69.2447	0.0252106	67.7	678	-0.000203444	dWE(1).Potential/dt < 1E-06 V/s
69.3447	0.0252075	67.8	679	3.56013e-05
69.4447	0.0252106	67.9	680	7.11841e-05
69.5447	0.0252106	68	681	-4.57838e-05	dWE(1).Potential/dt < 1E-06 V/s
69.6447	0.0252106	68.1	682	1.01576e-05
69.7447	0.0252075	68.2	683	-5.59414e-05	dWE(1).Potential/dt < 1E-06 V/s
69.8447	0.0252014	68.3	684	-7.63063e-05	dWE(1).Potential/dt < 1E-06 V/s
69.9447	0.0252014	68.4	685	6.10575e-05
70.0447	0.0252167	68.5	686	0.000259404
70.1447	0.0252014	68.6	687	-0.000457757	dWE(1).Potential/dt < 1E-06 V/s
70.2447	0.0252045	68.7	688	0.000284867
70.3447	0.0252075	68.8	689	-3.05412e-05	dWE(1).Potential/dt < 1E-06 V/s
70.4447	0.0251984	68.9	690	-0.000193262	dWE(1).Potential/dt < 1E-06 V/s
70.5447	0.0252075	69	691	0.000284798
70.6447	0.0252014	69.1	692	-0.000249222	dWE(1).Potential/dt < 1E-06 V/s
70.7447	0.0251984	69.2	693	4.58148e-05
70.8447	0.0251984	69.3	694	1.5224e-05
70.9447	0.0251953	69.4	695	-6.61549e-05	dWE(1).Potential/dt < 1E-06 V/s
71.0447	0.0252014	69.5	696	0.000147515
71.1447	0.0251984	69.6	697	-0.000137296	dWE(1).Potential/dt < 1E-06 V/s
71.2447	0.0252075	69.7	698	0.000223753
71.3447	0.0252014	69.8	699	-0.000228876	dWE(1).Potential/dt < 1E-06 V/s
71.4447	0.0251984	69.9	700	4.58148e-05
71.5447	0.0251923	70	701	-9.66837e-05	dWE(1).Potential/dt < 1E-06 V/s
71.6447	0.0251953	70.1	702	0.00011698
71.7447	0.0251953	70.2	703	-5.59601e-05	dWE(1).Potential/dt < 1E-06 V/s
71.8447	0.0252075	70.3	704	0.000233973
71.9447	0.0251953	70.4	705	-0.000366233	dWE(1).Potential/dt < 1E-06 V/s
72.0447	0.0251984	70.5	706	0.000239077
72.1447	0.0251953	70.6	707	-0.000132297	dWE(1).Potential/dt < 1E-06 V/s
72.2447	0.0252045	70.7	708	0.00021367
72.3447	0.0251953	70.8	709	-0.000284867	dWE(1).Potential/dt < 1E-06 V/s
72.4447	0.0251953	70.9	710	0.000137327
72.5447	0.0251984	71	711	2.54437e-05
72.6447	0.0251923	71.1	712	-0.000147534	dWE(1).Potential/dt < 1E-06 V/s
72.7447	0.0251984	71.2	713	0.000193305
72.8447	0.0251923	71.3	714	-0.000203482	dWE(1).Potential/dt < 1E-06 V/s
72.9447	0.0251923	71.4	715	9.15676e-05
73.0447	0.0251923	71.5	716	-2.03463e-05	dWE(1).Potential/dt < 1E-06 V/s
73.1447	0.0251892	71.6	717	-5.5929e-05	dWE(1).Potential/dt < 1E-06 V/s
73.2447	0.0251953	71.7	718	0.000147472
73.3447	0.0251862	71.8	719	-0.000249222	dWE(1).Potential/dt < 1E-06 V/s
73.4447	0.0251953	71.9	720	0.000295006
73.5447	0.0251923	72	721	-0.00019328	dWE(1).Potential/dt < 1E-06 V/s
73.6447	0.0251923	72.1	722	6.61177e-05
73.7447	0.0251953	72.2	723	4.5759e-05
[...]
86.3447	0.0251404	84.8	849	-0.000361161	dWE(1).Potential/dt < 1E-06 V/s
86.4447	0.0251495	84.9	850	0.000340802
86.5447	0.0251465	85	851	-0.000203457	dWE(1).Potential/dt < 1E-06 V/s
86.6447	0.0251465	85.1	852	6.61177e-05
86.7447	0.0251465	85.2	853	-1.017e-05	dWE(1).Potential/dt < 1E-06 V/s
86.8447	0.0251404	85.3	854	-0.000111908	dWE(1).Potential/dt < 1E-06 V/s
86.9447	0.0251404	85.4	855	7.12275e-05
87.0447	0.0251434	85.5	856	3.56386e-05
87.1447	0.0251495	85.6	857	7.62505e-05
87.2447	0.0251373	85.7	858	-0.000284805	dWE(1).Potential/dt < 1E-06 V/s
87.3447	0.0251434	85.8	859	0.000274641
87.4447	0.0251495	85.9	860	-1.24176e-08	dWE(1).Potential/dt < 1E-06 V/s
87.5447	0.0251434	86	861	-0.000162727	dWE(1).Potential/dt < 1E-06 V/s
87.6447	0.0251404	86.1	862	3.55765e-05
87.7447	0.0251404	86.2	863	1.52861e-05
87.8447	0.0251312	86.3	864	-0.000178007	dWE(1).Potential/dt < 1E-06 V/s
87.9447	0.0251373	86.4	865	0.000218706
88.0447	0.0251404	86.5	866	-4.58148e-05	dWE(1).Potential/dt < 1E-06 V/s
88.1447	0.0251465	86.6	867	9.66837e-05
88.2447	0.0251434	86.7	868	-0.00011698	dWE(1).Potential/dt < 1E-06 V/s
88.3447	0.0251404	86.8	869	-1.86264e-08	dWE(1).Potential/dt < 1E-06 V/s
88.4447	0.0251526	86.9	870	0.000249272
88.5447	0.0251434	87	871	-0.000320462	dWE(1).Potential/dt < 1E-06 V/s
88.6447	0.0251465	87.1	872	0.000203457
88.7447	0.0251434	87.2	873	-0.000122047	dWE(1).Potential/dt < 1E-06 V/s
88.8447	0.0251434	87.3	874	4.57838e-05
88.9447	0.0251373	87.4	875	-0.000122065	dWE(1).Potential/dt < 1E-06 V/s
89.0447	0.0251404	87.5	876	0.000127119
89.1447	0.0251373	87.6	877	-0.000111846	dWE(1).Potential/dt < 1E-06 V/s
89.2447	0.0251404	87.7	878	0.000101669
89.3447	0.0251434	87.8	879	1.02383e-05
89.4447	0.0251343	87.9	880	-0.000193324	dWE(1).Potential/dt < 1E-06 V/s
89.5447	0.0251343	88	881	0.00011698
89.6447	0.0251373	88.1	882	2.54437e-05
89.7447	0.0251343	88.2	883	-9.16049e-05	dWE(1).Potential/dt < 1E-06 V/s
89.8447	0.0251404	88.3	884	0.000157691
89.9447	0.0251465	88.4	885	3.05412e-05
90.0447	0.0251343	88.5	886	-0.00027469	dWE(1).Potential/dt < 1E-06 V/s
90.1447	0.0251404	88.6	887	0.000274659
90.2447	0.0251373	88.7	888	-0.000167812	dWE(1).Potential/dt < 1E-06 V/s
90.3447	0.0251373	88.8	889	5.59166e-05
90.4447	0.0251343	88.9	890	-6.61549e-05	dWE(1).Potential/dt < 1E-06 V/s
90.5447	0.0251343	89	891	3.56076e-05
90.6447	0.0251282	89.1	892	-0.000122047	dWE(1).Potential/dt < 1E-06 V/s
90.7447	0.0251343	89.2	893	0.000183073
90.8447	0.0251343	89.3	894	-9.15552e-05	dWE(1).Potential/dt < 1E-06 V/s
90.9447	0.0251373	89.4	895	7.63063e-05
91.0447	0.0251373	89.5	896	-3.56262e-05	dWE(1).Potential/dt < 1E-06 V/s
91.1447	0.0251282	89.6	897	-0.000157667	dWE(1).Potential/dt < 1E-06 V/s
91.2447	0.0251343	89.7	898	0.000218693
91.3447	0.0251221	89.8	899	-0.000325497	dWE(1).Potential/dt < 1E-06 V/s
91.4447	0.0251343	89.9	900	0.000386499
91.5447	0.0251221	90	901	-0.000406864	dWE(1).Potential/dt < 1E-06 V/s
91.6447	0.0251282	90.1	902	0.000294987
91.7447	0.0251312	90.2	903	-5.59414e-05	dWE(1).Potential/dt < 1E-06 V/s
91.8447	0.0251251	90.3	904	-0.000127163	dWE(1).Potential/dt < 1E-06 V/s
91.9447	0.0251221	90.4	905	2.54686e-05
92.0447	0.0251312	90.5	906	0.000183061
92.1447	0.0251343	90.6	907	-6.10389e-05	dWE(1).Potential/dt < 1E-06 V/s
92.2447	0.0251312	90.7	908	-6.10265e-05	dWE(1).Potential/dt < 1E-06 V/s
92.3447	0.0251312	90.8	909	4.57714e-05
92.4447	0.0251343	90.9	910	4.5759e-05
92.5447	0.0251312	91	911	-9.15428e-05	dWE(1).Potential/dt < 1E-06 V/s
92.6447	0.0251343	91.1	912	0.0001017
92.7447	0.0251282	91.2	913	-0.000157642	dWE(1).Potential/dt < 1E-06 V/s
92.8447	0.0251282	91.3	914	8.13852e-05
92.9447	0.0251251	91.4	915	-7.63063e-05	dWE(1).Potential/dt < 1E-06 V/s
93.0447	0.0251251	91.5	916	3.56262e-05
93.1447	0.0251251	91.6	917	-1.017e-05	dWE(1).Potential/dt < 1E-06 V/s
93.2447	0.025119	91.7	918	-0.000111901	dWE(1).Potential/dt < 1E-06 V/s
93.3447	0.025119	91.8	919	7.11841e-05
93.4447	0.0251221	91.9	920	3.562e-05
93.5447	0.0251312	92	921	0.000132211
93.6447	0.0251282	92.1	922	-0.000152551	dWE(1).Potential/dt < 1E-06 V/s
93.7447	0.0251251	92.2	923	1.01514e-05
93.8447	0.0251221	92.3	924	-3.04729e-05	dWE(1).Potential/dt < 1E-06 V/s
93.9447	0.025116	92.4	925	-8.65136e-05	dWE(1).Potential/dt < 1E-06 V/s
94.0447	0.025119	92.5	926	0.00011698
94.1447	0.0251129	92.6	927	-0.000167818	dWE(1).Potential/dt < 1E-06 V/s
94.2447	0.025119	92.7	928	0.000193243
94.3447	0.0251282	92.8	929	7.63312e-05
94.4447	0.0251221	92.9	930	-0.000198372	dWE(1).Potential/dt < 1E-06 V/s
94.5447	0.0251129	93	931	-6.61239e-05	dWE(1).Potential/dt < 1E-06 V/s
94.6447	0.025119	93.1	932	0.000198347
94.7447	0.025119	93.2	933	-0.000101731	dWE(1).Potential/dt < 1E-06 V/s
94.8447	0.025119	93.3	934	2.03277e-05
94.9447	0.025116	93.4	935	-5.59414e-05	dWE(1).Potential/dt < 1E-06 V/s
95.0447	0.0251099	93.5	936	-7.63063e-05	dWE(1).Potential/dt < 1E-06 V/s
95.1447	0.0251129	93.6	937	0.000117036
95.2447	0.0251068	93.7	938	-0.000167862	dWE(1).Potential/dt < 1E-06 V/s
95.3447	0.0251129	93.8	939	0.000193274
95.4447	0.025116	93.9	940	-3.56013e-05	dWE(1).Potential/dt < 1E-06 V/s
95.5447	0.0251099	94	941	-0.000127163	dWE(1).Potential/dt < 1E-06 V/s
95.6447	0.025116	94.1	942	0.000193305
95.7447	0.0251099	94.2	943	-0.000203475	dWE(1).Potential/dt < 1E-06 V/s
95.8447	0.0251129	94.3	944	0.000147553
95.9447	0.0251129	94.4	945	-5.59538e-05	dWE(1).Potential/dt < 1E-06 V/s
96.0447	0.0251129	94.5	946	1.01887e-05
96.1447	0.0251129	94.6	947	1.24176e-08	dWE(1).Potential/dt < 1E-06 V/s
96.2447	0.0251068	94.7	948	-0.000111895	dWE(1).Potential/dt < 1E-06 V/s
96.3447	0.0251099	94.8	949	0.000127119
96.4447	0.0251099	94.9	950	-5.59166e-05	dWE(1).Potential/dt < 1E-06 V/s
96.5447	0.0251099	95	951	1.01762e-05
96.6447	0.0251038	95.1	952	-0.000111901	dWE(1).Potential/dt < 1E-06 V/s
96.7447	0.0251129	95.2	953	0.00023907
96.8447	0.0251068	95.3	954	-0.000239058	dWE(1).Potential/dt < 1E-06 V/s
96.9447	0.0251068	95.4	955	0.000101713
97.0447	0.0251068	95.5	956	-2.03525e-05	dWE(1).Potential/dt < 1E-06 V/s
97.1447	0.0251099	95.6	957	5.59228e-05
97.2447	0.025116	95.7	958	7.63374e-05
97.3447	0.0250977	95.8	959	-0.000396725	dWE(1).Potential/dt < 1E-06 V/s
97.4447	0.0251007	95.9	960	0.000289908
97.5447	0.0251038	96	961	-4.0705e-05	dWE(1).Potential/dt < 1E-06 V/s
97.6447	0.0251099	96.1	962	8.6464e-05
97.7447	0.0251099	96.2	963	-6.10202e-05	dWE(1).Potential/dt < 1E-06 V/s
97.8447	0.0251068	96.3	964	-3.55765e-05	dWE(1).Potential/dt < 1E-06 V/s
97.9447	0.0251099	96.4	965	9.14993e-05
98.0447	0.0251038	96.5	966	-0.000157648	dWE(1).Potential/dt < 1E-06 V/s
98.1447	0.0251099	96.6	967	0.000193262
98.2447	0.0251068	96.7	968	-0.000147466	dWE(1).Potential/dt < 1E-06 V/s
98.3447	0.0251068	96.8	969	5.59166e-05
98.4447	0.0251007	96.9	970	-0.000122084	dWE(1).Potential/dt < 1E-06 V/s
98.5447	0.0251038	97	971	0.00012715
98.6447	0.0251099	97.1	972	5.59476e-05
98.7447	0.0251038	97.2	973	-0.000172928	dWE(1).Potential/dt < 1E-06 V/s
98.8447	0.0251007	97.3	974	3.56013e-05
98.9447	0.0251038	97.4	975	7.11841e-05
99.0447	0.0250977	97.5	976	-0.000157642	dWE(1).Potential/dt < 1E-06 V/s
99.1447	0.0250977	97.6	977	8.13852e-05
99.2447	0.0251007	97.7	978	3.56013e-05
99.3447	0.0251068	97.8	979	7.63063e-05
99.4447	0.0251038	97.9	980	-0.000117036	dWE(1).Potential/dt < 1E-06 V/s
99.5447	0.0250946	98	981	-0.000111883	dWE(1).Potential/dt < 1E-06 V/s
99.6447	0.0251007	98.1	982	0.00020856
99.7447	0.0251068	98.2	983	1.017e-05
99.8447	0.0250977	98.3	984	-0.000218718	dWE(1).Potential/dt < 1E-06 V/s
99.9447	0.0250977	98.4	985	0.000127181
100.045	0.0251038	98.5	986	8.13541e-05
100.145	0.0251038	98.6	987	-7.12151e-05	dWE(1).Potential/dt < 1E-06 V/s
100.245	0.0251007	98.7	988	-3.56013e-05	dWE(1).Potential/dt < 1E-06 V/s
100.345	0.0251038	98.8	989	9.15304e-05
100.445	0.0250977	98.9	990	-0.000157642	dWE(1).Potential/dt < 1E-06 V/s
100.545	0.0250885	99	991	-8.65012e-05	dWE(1).Potential/dt < 1E-06 V/s
100.645	0.0250946	99.1	992	0.000198372
100.745	0.0250885	99.2	993	-0.000213621	dWE(1).Potential/dt < 1E-06 V/s
100.845	0.0250977	99.3	994	0.000259417
100.945	0.0250916	99.4	995	-0.000239058	dWE(1).Potential/dt < 1E-06 V/s
101.045	0.0250946	99.5	996	0.000157642
101.145	0.0250946	99.6	997	-5.59166e-05	dWE(1).Potential/dt < 1E-06 V/s
101.245	0.0250946	99.7	998	1.01762e-05
101.345	0.0250946	99.8	999	6.20882e-09	dWE(1).Potential/dt < 1E-06 V/s
101.445	0.0250946	99.9	1000	6.20882e-09	dWE(1).Potential/dt < 1E-06 V/s
101.545	0.0250916	100	1001	-5.59228e-05	dWE(1).Potential/dt < 1E-06 V/s
101.645	0.0250946	100.1	1002	9.14993e-05
101.745	0.0250916	100.2	1003	-0.000101669	dWE(1).Potential/dt < 1E-06 V/s
101.845	0.0250946	100.3	1004	0.000101669
101.945	0.0250854	100.4	1005	-0.000213577	dWE(1).Potential/dt < 1E-06 V/s
102.045	0.0250916	100.5	1006	0.000228876
102.145	0.0250977	100.6	1007	1.01638e-05
102.245	0.0250885	100.7	1008	-0.000218724	dWE(1).Potential/dt < 1E-06 V/s
102.345	0.0250885	100.8	1009	0.00012715
102.445	0.0250946	100.9	1010	8.13727e-05
102.545	0.0250946	101	1011	-7.11903e-05	dWE(1).Potential/dt < 1E-06 V/s
102.645	0.0250946	101.1	1012	2.03525e-05
102.745	0.0250916	101.2	1013	-5.59228e-05	dWE(1).Potential/dt < 1E-06 V/s
102.845	0.0250824	101.3	1014	-0.000132266	dWE(1).Potential/dt < 1E-06 V/s
102.945	0.0250916	101.4	1015	0.000264502
103.045	0.0250854	101.5	1016	-0.000249253	dWE(1).Potential/dt < 1E-06 V/s
103.145	0.0250854	101.6	1017	0.000101738
103.245	0.0250885	101.7	1018	3.55827e-05
103.345	0.0250793	101.8	1019	-0.00020345	dWE(1).Potential/dt < 1E-06 V/s
103.445	0.0250977	101.9	1020	0.000452722
103.545	0.0250885	102	1021	-0.000412029	dWE(1).Potential/dt < 1E-06 V/s
103.645	0.0250824	102.1	1022	5.59849e-05
103.745	0.0250885	102.2	1023	0.000152551
103.845	0.0250916	102.3	1024	-3.55765e-05	dWE(1).Potential/dt < 1E-06 V/s
103.945	0.0250885	102.4	1025	-7.12648e-05	dWE(1).Potential/dt < 1E-06 V/s
104.045	0.0250885	102.5	1026	4.57838e-05
104.145	0.0250885	102.6	1027	-1.01887e-05	dWE(1).Potential/dt < 1E-06 V/s
104.245	0.0250854	102.7	1028	-5.59414e-05	dWE(1).Potential/dt < 1E-06 V/s
104.345	0.0250824	102.8	1029	-2.03277e-05	dWE(1).Potential/dt < 1E-06 V/s
104.445	0.0250916	102.9	1030	0.00019328
104.545	0.0250854	103	1031	-0.000228907	dWE(1).Potential/dt < 1E-06 V/s
104.645	0.0250854	103.1	1032	0.000101738
104.745	0.0250885	103.2	1033	3.55827e-05
104.845	0.0250824	103.3	1034	-0.000147472	dWE(1).Potential/dt < 1E-06 V/s
104.945	0.0250885	103.4	1035	0.000193243
105.045	0.0250916	103.5	1036	-3.55765e-05	dWE(1).Potential/dt < 1E-06 V/s
105.145	0.0250916	103.6	1037	-1.52861e-05	dWE(1).Potential/dt < 1E-06 V/s
105.245	0.0250854	103.7	1038	-0.000101738	dWE(1).Potential/dt < 1E-06 V/s
105.345	0.0250824	103.8	1039	1.52923e-05
105.445	0.0250793	103.9	1040	-4.07112e-05	dWE(1).Potential/dt < 1E-06 V/s
105.545	0.0250824	104	1041	8.14348e-05
105.645	0.0250824	104.1	1042	-4.57838e-05	dWE(1).Potential/dt < 1E-06 V/s
105.745	0.0250732	104.2	1043	-0.000157698	dWE(1).Potential/dt < 1E-06 V/s
105.845	0.0250885	104.3	1044	0.000386548
105.945	0.0250854	104.4	1045	-0.000264483	dWE(1).Potential/dt < 1E-06 V/s
106.045	0.0250824	104.5	1046	3.0535e-05
106.145	0.0250885	104.6	1047	0.000137302
106.245	0.0250885	104.7	1048	-8.13852e-05	dWE(1).Potential/dt < 1E-06 V/s
106.345	0.0250854	104.8	1049	-3.56013e-05	dWE(1).Potential/dt < 1E-06 V/s
106.445	0.0250732	104.9	1050	-0.000188214	dWE(1).Potential/dt < 1E-06 V/s
106.545	0.0250763	105	1051	0.000188214
106.645	0.0250854	105.1	1052	9.15179e-05
106.745	0.0250885	105.2	1053	-4.06926e-05	dWE(1).Potential/dt < 1E-06 V/s
106.845	0.0250824	105.3	1054	-0.000116955	dWE(1).Potential/dt < 1E-06 V/s
106.945	0.0250763	105.4	1055	-3.05225e-05	dWE(1).Potential/dt < 1E-06 V/s
107.045	0.0250793	105.5	1056	0.000106779
107.145	0.0250793	105.6	1057	-5.59166e-05	dWE(1).Potential/dt < 1E-06 V/s
107.245	0.0250763	105.7	1058	-4.57528e-05	dWE(1).Potential/dt < 1E-06 V/s
107.345	0.0250763	105.8	1059	3.55703e-05
107.445	0.0250641	105.9	1060	-0.000233992	dWE(1).Potential/dt < 1E-06 V/s
107.545	0.0250793	106	1061	0.000422193
107.645	0.0250763	106.1	1062	-0.000274635	dWE(1).Potential/dt < 1E-06 V/s
107.745	0.0250763	106.2	1063	8.64329e-05
107.845	0.0250763	106.3	1064	-1.01762e-05	dWE(1).Potential/dt < 1E-06 V/s
107.945	0.0250824	106.4	1065	0.000111901
108.045	0.0250763	106.5	1066	-0.000183092	dWE(1).Potential/dt < 1E-06 V/s
108.145	0.0250732	106.6	1067	3.55579e-05
108.245	0.0250793	106.7	1068	0.000127169
108.345	0.0250793	106.8	1069	-8.13665e-05	dWE(1).Potential/dt < 1E-06 V/s
108.445	0.0250671	106.9	1070	-0.000203413	dWE(1).Potential/dt < 1E-06 V/s
108.545	0.0250793	107	1071	0.000366177
108.645	0.0250732	107.1	1072	-0.000294987	dWE(1).Potential/dt < 1E-06 V/s
108.745	0.0250702	107.2	1073	5.59414e-05
108.845	0.0250732	107.3	1074	7.11841e-05
108.945	0.025061	107.4	1075	-0.00026955	dWE(1).Potential/dt < 1E-06 V/s
109.045	0.0250763	107.5	1076	0.000432307
109.145	0.0250732	107.6	1077	-0.00027469	dWE(1).Potential/dt < 1E-06 V/s
109.245	0.0250671	107.7	1078	-2.53878e-05	dWE(1).Potential/dt < 1E-06 V/s
109.345	0.0250763	107.8	1079	0.000228876
109.445	0.0250671	107.9	1080	-0.000295006	dWE(1).Potential/dt < 1E-06 V/s
109.545	0.0250702	108	1081	0.00019328
109.645	0.0250702	108.1	1082	-6.61177e-05	dWE(1).Potential/dt < 1E-06 V/s
109.745	0.0250671	108.2	1083	-4.5759e-05	dWE(1).Potential/dt < 1E-06 V/s
109.845	0.0250671	108.3	1084	3.56138e-05
109.945	0.0250671	108.4	1085	-1.01576e-05	dWE(1).Potential/dt < 1E-06 V/s
110.045	0.0250671	108.5	1086	1.24176e-08	dWE(1).Potential/dt < 1E-06 V/s
110.145	0.0250641	108.6	1087	-5.59663e-05	dWE(1).Potential/dt < 1E-06 V/s
110.245	0.0250702	108.7	1088	0.000147534
110.345	0.0250702	108.8	1089	-8.13976e-05	dWE(1).Potential/dt < 1E-06 V/s
110.445	0.0250671	108.9	1090	-3.55827e-05	dWE(1).Potential/dt < 1E-06 V/s
110.545	0.0250641	109	1091	-2.03649e-05	dWE(1).Potential/dt < 1E-06 V/s
110.645	0.0250671	109.1	1092	8.14348e-05
110.745	0.0250732	109.2	1093	6.60742e-05
110.845	0.0250671	109.3	1094	-0.000172897	dWE(1).Potential/dt < 1E-06 V/s
110.945	0.025061	109.4	1095	-2.03525e-05	dWE(1).Potential/dt < 1E-06 V/s
111.045	0.025061	109.5	1096	5.08502e-05
111.145	0.0250671	109.6	1097	9.15552e-05
111.245	0.025058	109.7	1098	-0.00023907	dWE(1).Potential/dt < 1E-06 V/s
111.345	0.0250702	109.8	1099	0.000350966
111.445	0.0250641	109.9	1100	-0.000284848	dWE(1).Potential/dt < 1E-06 V/s
111.545	0.025061	110	1101	5.59911e-05
111.645	0.0250641	110.1	1102	7.1153e-05
111.745	0.0250702	110.2	1103	6.61673e-05
111.845	0.025061	110.3	1104	-0.000228888	dWE(1).Potential/dt < 1E-06 V/s
111.945	0.025061	110.4	1105	0.000127138
112.045	0.0250671	110.5	1106	8.13852e-05
112.145	0.0250671	110.6	1107	-7.11841e-05	dWE(1).Potential/dt < 1E-06 V/s
112.245	0.0250549	110.7	1108	-0.000203457	dWE(1).Potential/dt < 1E-06 V/s
112.345	0.0250641	110.8	1109	0.000310255
112.445	0.0250549	110.9	1110	-0.000315321	dWE(1).Potential/dt < 1E-06 V/s
112.545	0.0250641	111	1111	0.000305151
112.645	0.025058	111.1	1112	-0.000249216	dWE(1).Potential/dt < 1E-06 V/s
112.745	0.025058	111.2	1113	0.0001017
112.845	0.0250549	111.3	1114	-7.62877e-05	dWE(1).Potential/dt < 1E-06 V/s
112.945	0.025058	111.4	1115	9.15304e-05
113.045	0.025061	111.5	1116	1.01949e-05
113.145	0.0250519	111.6	1117	-0.000193293	dWE(1).Potential/dt < 1E-06 V/s
113.245	0.0250488	111.7	1118	6.10327e-05
113.345	0.025061	111.8	1119	0.000228925
113.445	0.025061	111.9	1120	-0.000152625	dWE(1).Potential/dt < 1E-06 V/s
113.545	0.025058	112	1121	-1.52923e-05	dWE(1).Potential/dt < 1E-06 V/s
113.645	0.0250549	112.1	1122	-2.03215e-05	dWE(1).Potential/dt < 1E-06 V/s
113.745	0.025061	112.2	1123	0.000137333
113.845	0.025061	112.3	1124	-8.13976e-05	dWE(1).Potential/dt < 1E-06 V/s
113.945	0.025058	112.4	1125	-3.56386e-05	dWE(1).Potential/dt < 1E-06 V/s
114.045	0.0250519	112.5	1126	-7.62505e-05	dWE(1).Potential/dt < 1E-06 V/s
114.145	0.0250641	112.6	1127	0.000284805
114.245	0.025061	112.7	1128	-0.000218662	dWE(1).Potential/dt < 1E-06 V/s
114.345	0.0250549	112.8	1129	-3.5651e-05	dWE(1).Potential/dt < 1E-06 V/s
114.445	0.025058	112.9	1130	0.00011698
114.545	0.025061	113	1131	1.86264e-08	dWE(1).Potential/dt < 1E-06 V/s
114.645	0.0250549	113.1	1132	-0.000137364	dWE(1).Potential/dt < 1E-06 V/s
114.745	0.0250641	113.2	1133	0.000249234
114.845	0.025058	113.3	1134	-0.000239046	dWE(1).Potential/dt < 1E-06 V/s
114.945	0.0250549	113.4	1135	4.57714e-05
115.045	0.025058	113.5	1136	7.11841e-05
115.145	0.0250519	113.6	1137	-0.000157642	dWE(1).Potential/dt < 1E-06 V/s
115.245	0.025058	113.7	1138	0.000193243
115.345	0.0250549	113.8	1139	-0.000147484	dWE(1).Potential/dt < 1E-06 V/s
115.445	0.0250641	113.9	1140	0.000223778
115.545	0.0250671	114	1141	-6.0983e-05	dWE(1).Potential/dt < 1E-06 V/s
115.645	0.025058	114.1	1142	-0.000172978	dWE(1).Potential/dt < 1E-06 V/s
115.745	0.0250549	114.2	1143	6.10513e-05
115.845	0.025061	114.3	1144	0.000116987
115.945	0.025058	114.4	1145	-0.000137376	dWE(1).Potential/dt < 1E-06 V/s
116.045	0.025058	114.5	1146	5.59538e-05
116.145	0.0250458	114.6	1147	-0.000233954	dWE(1).Potential/dt < 1E-06 V/s
116.245	0.025061	114.7	1148	0.000422137
116.345	0.0250671	114.8	1149	-0.000106804	dWE(1).Potential/dt < 1E-06 V/s
116.445	0.025061	114.9	1150	-0.000132229	dWE(1).Potential/dt < 1E-06 V/s
116.545	0.0250549	115	1151	-2.03711e-05	dWE(1).Potential/dt < 1E-06 V/s
116.645	0.0250641	115.1	1152	0.000218712
116.745	0.0250519	115.2	1153	-0.000350904	dWE(1).Potential/dt < 1E-06 V/s
116.845	0.0250549	115.3	1154	0.000228857
116.945	0.025058	115.4	1155	-2.03587e-05	dWE(1).Potential/dt < 1E-06 V/s
117.045	0.0250519	115.5	1156	-0.000137302	dWE(1).Potential/dt < 1E-06 V/s
117.145	0.0250549	115.6	1157	0.000137314
117.245	0.0250488	115.7	1158	-0.000167849	dWE(1).Potential/dt < 1E-06 V/s
117.345	0.025061	115.8	1159	0.000305213
117.445	0.0250519	115.9	1160	-0.000330632	dWE(1).Potential/dt < 1E-06 V/s
117.545	0.0250519	116	1161	0.000147528
117.645	0.0250488	116.1	1162	-8.64826e-05	dWE(1).Potential/dt < 1E-06 V/s
117.745	0.0250549	116.2	1163	0.000147534
117.845	0.025061	116.3	1164	3.05101e-05
117.945	0.025058	116.4	1165	-0.00010686	dWE(1).Potential/dt < 1E-06 V/s
118.045	0.025058	116.5	1166	5.59538e-05
118.145	0.025058	116.6	1167	-1.01887e-05	dWE(1).Potential/dt < 1E-06 V/s
118.245	0.025058	116.7	1168	-1.24176e-08	dWE(1).Potential/dt < 1E-06 V/s
118.345	0.025061	116.8	1169	5.59663e-05
118.445	0.025058	116.9	1170	-9.16049e-05	dWE(1).Potential/dt < 1E-06 V/s
118.545	0.025061	117	1171	0.000101762
118.645	0.0250488	117.1	1172	-0.000269618	dWE(1).Potential/dt < 1E-06 V/s
118.745	0.0250549	117.2	1173	0.000264533
118.845	0.0250549	117.3	1174	-0.000111914	dWE(1).Potential/dt < 1E-06 V/s
118.945	0.0250519	117.4	1175	-3.55827e-05	dWE(1).Potential/dt < 1E-06 V/s
119.045	0.025058	117.5	1176	0.000147472
119.145	0.0250549	117.6	1177	-0.000137314	dWE(1).Potential/dt < 1E-06 V/s
119.245	0.0250549	117.7	1178	5.59414e-05
119.345	0.025058	117.8	1179	4.5759e-05
119.445	0.0250519	117.9	1180	-0.000147472	dWE(1).Potential/dt < 1E-06 V/s
119.545	0.025061	118	1181	0.000249222
119.645	0.0250549	118.1	1182	-0.000239077	dWE(1).Potential/dt < 1E-06 V/s
119.745	0.025058	118.2	1183	0.000157667
119.845	0.0250488	118.3	1184	-0.000223797	dWE(1).Potential/dt < 1E-06 V/s
119.945	0.0250458	118.4	1185	6.10699e-05
120.045	0.0250488	118.5	1186	6.0983e-05
120.145	0.0250549	118.6	1187	6.61673e-05
120.245	0.0250488	118.7	1188	-0.000172959	dWE(1).Potential/dt < 1E-06 V/s
120.345	0.0250549	118.8	1189	0.000203482
120.445	0.0250519	118.9	1190	-0.000147497	dWE(1).Potential/dt < 1E-06 V/s
120.545	0.0250488	119	1191	-1.86264e-08	dWE(1).Potential/dt < 1E-06 V/s
120.645	0.0250519	119.1	1192	8.14348e-05
120.745	0.0250519	119.2	1193	-4.57838e-05	dWE(1).Potential/dt < 1E-06 V/s
120.845	0.0250488	119.3	1194	-4.579e-05	dWE(1).Potential/dt < 1E-06 V/s
120.945	0.0250488	119.4	1195	3.56262e-05
121.045	0.0250519	119.5	1196	4.58086e-05
121.145	0.0250519	119.6	1197	-3.56076e-05	dWE(1).Potential/dt < 1E-06 V/s
121.245	0.0250549	119.7	1198	6.61177e-05
121.345	0.0250397	119.8	1199	-0.000315346	dWE(1).Potential/dt < 1E-06 V/s
121.445	0.0250458	119.9	1200	0.000300097