File: data/20200205/OCP_p31_1.txt
Time (s)	WE(1).Potential (V)	Corrected time (s)	Index	dWE(1).Potential/dt (V/s)	OCP value (V)
1.36674	-0.0344086	0	1	0	-0.0325977
1.46674	-0.0344025	0.1	2	6.10202e-05
1.56674	-0.0343933	0.2	3	0.000106841
1.66674	-0.0343933	0.3	4	-8.64764e-05
1.76674	-0.0343781	0.4	5	0.000310267
1.86674	-0.0343719	0.5	6	-6.61611e-05
1.96674	-0.0343567	0.6	7	0.000259379
2.06674	-0.0343262	0.7	8	0.000401785
2.16674	-0.0343262	0.8	9	-0.000305201
2.26674	-0.0343201	0.9	10	0.000213658
2.36674	-0.0343079	1	11	0.000152563
2.46674	-0.0342987	1.1	12	4.57714e-05
2.56674	-0.0342804	1.2	13	0.000269599
2.66674	-0.0342804	1.3	14	-0.00018316
2.76674	-0.0342621	1.4	15	0.000396781
2.86674	-0.0342468	1.5	16	6.61363e-05
2.96674	-0.0342468	1.6	17	-0.000116949
3.06674	-0.0342468	1.7	18	5.08875e-05
3.16674	-0.0342285	1.8	19	0.000335698
3.26674	-0.0342224	1.9	20	-0.0001018
3.36674	-0.0342041	2	21	0.000325565
3.46674	-0.0342072	2.1	22	-0.000249259
3.56674	-0.0341858	2.2	23	0.000488373
3.66674	-0.0341919	2.3	24	-0.000371362
3.76674	-0.0341766	2.4	25	0.000422212
3.86674	-0.0341583	2.5	26	0.000137314
3.96674	-0.0341522	2.6	27	-5.08502e-05
4.06674	-0.0341461	2.7	28	0.000101638
4.16674	-0.034137	2.8	29	0.000117098
4.26674	-0.0341187	2.9	30	0.000249135
4.36674	-0.0341003	3	31	0.0001526
4.46674	-0.0341095	3.1	32	-0.000320338
4.56674	-0.0341034	3.2	33	0.000279695
4.66674	-0.0340912	3.3	34	0.000122103
4.76674	-0.0340942	3.4	35	-0.000178044
4.86674	-0.0340759	3.5	36	0.000412017
4.96674	-0.0340607	3.6	37	5.59166e-05
5.06674	-0.0340607	3.7	38	-0.000116999
5.16674	-0.0340576	3.8	39	0.000106779
5.26674	-0.0340393	3.9	40	0.000300097
5.36674	-0.0340424	4	41	-0.000259342
5.46674	-0.0340302	4.1	42	0.000320425
5.56674	-0.0340057	4.2	43	0.000294906
5.66674	-0.0340027	4.3	44	-0.000188102
5.76674	-0.0339996	4.4	45	0.000101713
5.86674	-0.0339966	4.5	46	3.04729e-05
5.96674	-0.0339905	4.6	47	8.64516e-05
6.06674	-0.0339844	4.7	48	5.08999e-05
6.16674	-0.0339874	4.8	49	-0.000106841
6.26674	-0.0339661	4.9	50	0.000447606
6.36674	-0.0339813	5	51	-0.000539136
6.46674	-0.0339691	5.1	52	0.000473037
6.56674	-0.0339478	5.2	53	0.000198285
6.66674	-0.0339508	5.3	54	-0.000264396
6.76674	-0.0339294	5.4	55	0.000498382
6.86674	-0.0339264	5.5	56	-0.000203388
6.96674	-0.0339233	5.6	57	9.15428e-05
7.06674	-0.0339172	5.7	58	8.64019e-05
7.16674	-0.033902	5.8	59	0.000218774
7.26674	-0.0338898	5.9	60	6.61487e-05
7.36674	-0.0338959	6	61	-0.000203438
7.46674	-0.0338928	6.1	62	0.000167849
7.56674	-0.0338989	6.2	63	-0.000167936
7.66674	-0.0338745	6.3	64	0.000529016
7.76674	-0.0338562	6.4	65	3.04853e-05
7.86674	-0.0338623	6.5	66	-0.000244056
7.96674	-0.0338593	6.6	67	0.000188102
8.06674	-0.0338593	6.7	68	-5.59166e-05
8.16674	-0.0338379	6.8	69	0.000401772
8.26674	-0.0338257	6.9	70	-2.54313e-05
8.36674	-0.0338287	7	71	-0.000127107
8.46674	-0.0338287	7.1	72	7.62691e-05
8.56674	-0.0338257	7.2	73	4.5759e-05
8.66674	-0.0338165	7.3	74	0.000132322
8.76674	-0.0338104	7.4	75	1.51495e-05
8.86674	-0.0337982	7.5	76	0.000183197
8.96674	-0.0337982	7.6	77	-0.000122103
9.06674	-0.033786	7.7	78	0.000264508
9.16674	-0.033786	7.8	79	-0.000142455
9.26674	-0.0337677	7.9	80	0.000376354
9.36674	-0.0337708	8	81	-0.000269525
9.46674	-0.0337708	8.1	82	9.65968e-05
9.56674	-0.0337555	8.2	83	0.000269562
9.66674	-0.0337585	8.3	84	-0.000233961
9.76674	-0.0337494	8.4	85	0.000254301
9.86674	-0.0337433	8.5	86	-4.97947e-06
9.96674	-0.0337524	8.6	87	-0.000208591
10.0667	-0.0337372	8.7	88	0.000406913
10.1667	-0.0337341	8.8	89	-0.000152613
10.2667	-0.0337158	8.9	90	0.000350972
10.3667	-0.0337067	9	91	-3.56138e-05
10.4667	-0.0337097	9.1	92	-0.000101713
10.5667	-0.0337006	9.2	93	0.000233874
10.6667	-0.0337067	9.3	94	-0.000228832
10.7667	-0.0336884	9.4	95	0.000437386
10.8667	-0.0336945	9.5	96	-0.000345781
10.9667	-0.0336761	9.6	97	0.000467847
11.0667	-0.0336761	9.7	98	-0.000233936
11.1667	-0.0336792	9.8	99	5.10365e-06
11.2667	-0.033667	9.9	100	0.000259379
11.3667	-0.0336609	10	101	-4.06802e-05
11.4667	-0.0336639	10.1	102	-8.64391e-05
11.5667	-0.0336639	10.2	103	5.59042e-05
11.6667	-0.0336578	10.3	104	0.000101676
11.7667	-0.0336365	10.4	105	0.000320561
11.8667	-0.0336487	10.5	106	-0.00045271
11.9667	-0.0336243	10.6	107	0.000661127
12.0667	-0.0336273	10.7	108	-0.000381445
12.1667	-0.0336304	10.8	109	6.10823e-05
12.2667	-0.033609	10.9	110	0.000417009
12.3667	-0.0336121	11	111	-0.000315346
12.4667	-0.033606	11.1	112	0.000218799
12.5667	-0.0336029	11.2	113	-2.54561e-05
12.6667	-0.0335968	11.3	114	9.65719e-05
12.7667	-0.0335999	11.4	115	-0.0001169
12.8667	-0.0335876	11.5	116	0.000279732
12.9667	-0.03359375	11.6	117	-0.000264582
13.0667	-0.0335724	11.7	118	0.000503609
13.1667	-0.0335754	11.8	119	-0.000325553
13.2667	-0.0335846	11.9	120	-6.10202e-05
13.3667	-0.0335724	12	121	0.000320462
13.4667	-0.0335632	12.1	122	-5.19057e-06
13.5667	-0.0335663	12.2	123	-0.00012204
13.6667	-0.033548	12.3	124	0.000401822
13.7667	-0.0335541	12.4	125	-0.000335698
13.8667	-0.0335419	12.5	126	0.000356051
13.9667	-0.0335419	12.6	127	-0.000162795
14.0667	-0.0335327	12.7	128	0.000208467
14.1667	-0.0335358	12.8	129	-0.000162733
14.2667	-0.0335297	12.9	130	0.000178106
14.3667	-0.0335236	13	131	3.04729e-05
14.4667	-0.0335236	13.1	132	-5.08502e-05
14.5667	-0.0335236	13.2	133	2.03401e-05
14.6667	-0.0335144	13.3	134	0.000167886
14.7667	-0.0335022	13.4	135	0.000116924
14.8667	-0.03349	13.5	136	0.000111908
14.9667	-0.0334961	13.6	137	-0.000213558
15.0667	-0.0334991	13.7	138	5.59042e-05
15.1667	-0.033493	13.8	139	0.000127169
15.2667	-0.0334869	13.9	140	3.04853e-05
15.3667	-0.0334778	14	141	0.000116999
15.4667	-0.0334717	14.1	142	2.53816e-05
15.5667	-0.0334686	14.2	143	1.53234e-05
15.6667	-0.0334686	14.3	144	-1.52489e-05
15.7667	-0.0334839	14.4	145	-0.000269537
15.8667	-0.0334686	14.5	146	0.000457788
15.9667	-0.0334503	14.6	147	0.000106816
16.0667	-0.0334473	14.7	148	-0.000106866
16.1667	-0.0334595	14.8	149	-0.000198359
16.2667	-0.0334564	14.9	150	0.000208554
16.3667	-0.0334473	15	151	9.15428e-05
16.4667	-0.0334412	15.1	152	1.52116e-05
16.5667	-0.0334229	15.2	153	0.000295068
16.6667	-0.0334381	15.3	154	-0.000473012
16.7667	-0.033432	15.4	155	0.000350947
16.8667	-0.0334198	15.5	156	0.00010175
16.9667	-0.0334137	15.6	157	-1.0257e-05
17.0667	-0.0334106	15.7	158	2.5481e-05
17.1667	-0.0333893	15.8	159	0.000376391
17.2667	-0.0334198	15.9	160	-0.00079859
17.3667	-0.0333954	16	161	0.000874772
17.4667	-0.0334015	16.1	162	-0.000498406
17.5667	-0.0333893	16.2	163	0.000376391
17.6667	-0.0333893	16.3	164	-0.000162795
17.7667	-0.0333984	16.4	165	-0.000127206
17.8667	-0.0333893	16.5	166	0.000274765
17.9667	-0.0333832	16.6	167	-2.55431e-05
18.0667	-0.0333801	16.7	168	1.53109e-05
18.1667	-0.0333679	16.8	169	0.000208504
18.2667	-0.0333862	16.9	170	-0.000467884
18.3667	-0.0333649	17	171	0.000645891
18.4667	-0.0333679	17.1	172	-0.000366208
18.5667	-0.0333588	17.2	173	0.000274728
18.6667	-0.0333588	17.3	174	-0.000117049
18.7667	-0.0333466	17.4	175	0.000254326
18.8667	-0.0333466	17.5	176	-0.000142368
18.9667	-0.0333496	17.6	177	-1.53109e-05
19.0667	-0.0333466	17.7	178	9.16173e-05
19.1667	-0.0333466	17.8	179	-4.57714e-05
19.2667	-0.0333282	17.9	180	0.000345881
19.3667	-0.0333313	18	181	-0.000269587
19.4667	-0.0333466	18.1	182	-0.000183061
19.5667	-0.0333313	18.2	183	0.000447618
19.6667	-0.0333252	18.3	184	-0.000116999
19.7667	-0.0333252	18.4	185	-2.03401e-05
19.8667	-0.0333069	18.5	186	0.000356013
19.9667	-0.0333282	18.6	187	-0.000605186
20.0667	-0.0333252	18.7	188	0.000366121
20.1667	-0.0333038	18.8	189	0.000284823
20.2667	-0.0333069	18.9	190	-0.000295006
20.3667	-0.0333008	19	191	0.000218799
20.4667	-0.0333038	19.1	192	-0.000137414
20.5667	-0.0332947	19.2	193	0.000223828
20.6667	-0.0332947	19.3	194	-0.000116999
20.7667	-0.0333038	19.4	195	-0.000137364
20.8667	-0.0332855	19.5	196	0.000442564
20.9667	-0.0332916	19.6	197	-0.000356088
21.0667	-0.0332886	19.7	198	0.000188226
21.1667	-0.0332886	19.8	199	-5.60035e-05
21.2667	-0.0332733	19.9	200	0.00028989
21.3667	-0.0332703	20	201	-0.000122016
21.4667	-0.0332642	20.1	202	0.000127132
21.5667	-0.0332764	20.2	203	-0.000284836
21.6667	-0.033255	20.3	204	0.000554497
21.7667	-0.0332458	20.4	205	-0.00012214
21.8667	-0.0332825	20.5	206	-0.000706899
21.9667	-0.033255	20.6	207	0.000961249
22.0667	-0.0332489	20.7	208	-0.000330595
22.1667	-0.0332581	20.8	209	-0.000147534
22.2667	-0.033252	20.9	210	0.000239089
22.3667	-0.0332458	21	211	1.00831e-05
22.4667	-0.0332397	21.1	212	6.11693e-05
22.5667	-0.0332245	21.2	213	0.000228869
22.6667	-0.0332336	21.3	214	-0.000325528
22.7667	-0.0332275	21.4	215	0.000269537
22.8667	-0.0332336	21.5	216	-0.000213608
22.9667	-0.0332214	21.6	217	0.000315358
23.0667	-0.0332397	21.7	218	-0.000498469
23.1667	-0.0332275	21.8	219	0.000478079
23.2667	-0.0332123	21.9	220	7.62815e-05
23.3667	-0.0332184	22	221	-0.000249222
23.4667	-0.0332153	22.1	222	0.000177994
23.5667	-0.0332153	22.2	223	-5.59042e-05
23.6667	-0.0332123	22.3	224	6.61115e-05
23.7667	-0.0332123	22.4	225	-3.5651e-05
23.8667	-0.0332062	22.5	226	0.000122103
23.9667	-0.0332031	22.6	227	-1.53234e-05
24.0667	-0.0332092	22.7	228	-0.000127082
24.1667	-0.033197	22.8	229	0.000305114
24.2667	-0.0331879	22.9	230	5.11606e-06
24.3667	-0.0331909	23	231	-0.000122065
24.4667	-0.0331726	23.1	232	0.00040176
24.5667	-0.033197	23.2	233	-0.000671396
24.6667	-0.0331848	23.3	234	0.000569659
24.7667	-0.0331787	23.4	235	-0.000111808
24.8667	-0.0331818	23.5	236	-8.65509e-05
24.9667	-0.0331696	23.6	237	0.000279757
25.0667	-0.0331635	23.7	238	-4.06057e-05
25.1667	-0.0331787	23.8	239	-0.000310267
25.2667	-0.0331696	23.9	240	0.000366184
25.3667	-0.0331787	24	241	-0.000325416
25.4667	-0.0331604	24.1	242	0.000472988
25.5667	-0.0331543	24.2	243	-0.00013231
25.6667	-0.0331482	24.3	244	0.000101849
25.7667	-0.0331573	24.4	245	-0.000218761
25.8667	-0.0331543	24.5	246	0.000183098
25.9667	-0.033136	24.6	247	0.000269587
26.0667	-0.0331512	24.7	248	-0.000483245
26.1667	-0.0331543	24.8	249	0.000183098
26.2667	-0.0331299	24.9	250	0.000432407
26.3667	-0.033136	25	251	-0.000407025
26.4667	-0.033139	25.1	252	9.66713e-05
26.5667	-0.0331451	25.2	253	-9.65719e-05
26.6667	-0.0331329	25.3	254	0.000284786
26.7667	-0.0331238	25.4	255	5.07881e-06
26.8667	-0.0331085	25.5	256	0.00021367
26.9667	-0.0331207	25.6	257	-0.000371312
27.0667	-0.0331299	25.7	258	2.54437e-05
27.1667	-0.0331116	25.8	259	0.000401748
27.2667	-0.0331177	25.9	260	-0.000355964
27.3667	-0.0331146	26	261	0.000188189
27.4667	-0.0330994	26.1	262	0.000223766
27.5667	-0.0331116	26.2	263	-0.000391677
27.6667	-0.0331116	26.3	264	0.000193305
27.7667	-0.0331024	26.4	265	0.000127194
27.8667	-0.0331024	26.5	266	-0.000106792
27.9667	-0.0330994	26.6	267	8.64764e-05
28.0667	-0.0331085	26.7	268	-0.000203525
28.1667	-0.0330872	26.8	269	0.00050875
28.2667	-0.0330963	26.9	270	-0.000447643
28.3667	-0.0330872	27	271	0.000345918
28.4667	-0.0330902	27.1	272	-0.000193343
28.5667	-0.0330963	27.2	273	-4.57466e-05
28.6667	-0.0330719	27.3	274	0.000508651
28.7667	-0.0330872	27.4	275	-0.000584895
28.8667	-0.0330841	27.5	276	0.000315358
28.9667	-0.033078	27.6	277	2.53568e-05
29.0667	-0.033078	27.7	278	-6.09706e-05
29.1667	-0.0330719	27.8	279	0.00013231
29.2667	-0.0330627	27.9	280	9.65719e-05
29.3667	-0.0330627	28	281	-8.64143e-05
29.4667	-0.0330658	28.1	282	-2.54065e-05
29.5667	-0.033075	28.2	283	-0.00013231
29.6667	-0.0330597	28.3	284	0.000376366
29.7667	-0.0330566	28.4	285	-0.000152538
29.8667	-0.0330597	28.5	286	-4.07547e-05
29.9667	-0.0330536	28.6	287	0.000157729
30.0667	-0.0330383	28.7	288	0.00019831
30.1667	-0.0330414	28.8	289	-0.000213608
30.2667	-0.0330505	28.9	290	-8.13727e-05
30.3667	-0.0330444	29	291	0.000208504
30.4667	-0.0330414	29.1	292	-4.57217e-05
30.5667	-0.0330383	29.2	293	4.06802e-05
30.6667	-0.0330475	29.3	294	-0.000193343
30.7667	-0.0330414	29.4	295	0.000229006
30.8667	-0.033017	29.5	296	0.000345794
30.9667	-0.0330383	29.6	297	-0.000656036
31.0667	-0.033017	29.7	298	0.000722135
31.1667	-0.033017	29.8	299	-0.000320362
31.2667	-0.033017	29.9	300	7.12151e-05
31.3667	-0.033017	30	301	1.24176e-08
31.4667	-0.0330292	30.1	302	-0.000223803
31.5667	-0.0330048	30.2	303	0.000589999
31.6667	-0.033017	30.3	304	-0.000549344
31.7667	-0.0329956	30.4	305	0.000615542
31.8667	-0.0330017	30.5	306	-0.000401884
31.9667	-0.0330109	30.6	307	-2.53196e-05
32.0667	-0.0329956	30.7	308	0.000366196
32.1667	-0.0330017	30.8	309	-0.000320462
32.2667	-0.03302	30.9	310	-0.000213558
32.3667	-0.0330078	31	311	0.000417059
32.4667	-0.0329956	31.1	312	2.03277e-05
32.5667	-0.0329987	31.2	313	-0.000157704
32.6667	-0.0329987	31.3	314	7.62815e-05
32.7667	-0.0329926	31.4	315	0.00010175
32.8667	-0.0330048	31.5	316	-0.000295068
32.9667	-0.0329926	31.6	317	0.000386611
33.0667	-0.0329773	31.7	318	9.65968e-05
33.1667	-0.0329926	31.8	319	-0.000417083
33.2667	-0.0329834	31.9	320	0.000396656
33.3667	-0.0329803	32	321	-0.000101638
33.4667	-0.0329834	32.1	322	-6.11072e-05
33.5667	-0.0329834	32.2	323	4.57714e-05
33.6667	-0.0329834	32.3	324	-1.02073e-05
33.7667	-0.0329651	32.4	325	0.000335748
33.8667	-0.0329651	32.5	326	-0.000213608
33.9667	-0.032962	32.6	327	0.000116999
34.0667	-0.032962	32.7	328	-3.56386e-05
34.1667	-0.0329559	32.8	329	0.000122016
34.2667	-0.032962	32.9	330	-0.000182999
34.3667	-0.0329712	33	331	-7.64057e-05
34.4667	-0.0329529	33.1	332	0.000422212
34.5667	-0.0329498	33.2	333	-0.000188164
34.6667	-0.0329498	33.3	334	2.54437e-05
34.7667	-0.0329498	33.4	335	1.02073e-05
34.8667	-0.0329559	33.5	336	-0.000111933
34.9667	-0.0329376	33.6	337	0.000406926
35.0667	-0.0329529	33.7	338	-0.000513767
35.1667	-0.0329376	33.8	339	0.000518771
35.2667	-0.0329315	33.9	340	-0.000116949
35.3667	-0.0329468	34	341	-0.000300134
35.4667	-0.0329529	34.1	342	8.64019e-05
35.5667	-0.0329559	34.2	343	-3.55765e-05
35.6667	-0.0329407	34.3	344	0.000295031
35.7667	-0.0329254	34.4	345	9.15676e-05
35.8667	-0.0329224	34.5	346	-7.12151e-05
35.9667	-0.0329285	34.6	347	-9.66464e-05
36.0667	-0.0329285	34.7	348	8.13727e-05
36.1667	-0.0329315	34.8	349	-7.62691e-05
36.2667	-0.0329315	34.9	350	3.55641e-05
36.3667	-0.0329193	35	351	0.000213633
36.4667	-0.0329071	35.1	352	8.13479e-05
36.5667	-0.0329285	35.2	353	-0.00049334
36.6667	-0.0329193	35.3	354	0.000457788
36.7667	-0.0329315	35.4	355	-0.00040181
36.8667	-0.0328979	35.5	356	0.000788321
36.9667	-0.032901	35.6	357	-0.000488236
37.0667	-0.0329071	35.7	358	3.5502e-05
37.1667	-0.0329193	35.8	359	-0.000162671
37.2667	-0.0329041	35.9	360	0.000401822
37.3667	-0.0329071	36	361	-0.000274703
37.4667	-0.0328949	36.1	362	0.000310267
37.5667	-0.0329071	36.2	363	-0.000376378
37.6667	-0.0328949	36.3	364	0.000406876
37.7667	-0.0328979	36.4	365	-0.000239002
37.8667	-0.032901	36.5	366	2.03401e-05
37.9667	-0.0328888	36.6	367	0.000249209
38.0667	-0.0328979	36.7	368	-0.000320425
38.1667	-0.032901	36.8	369	9.158e-05
38.2667	-0.0328918	36.9	370	0.000172829
38.3667	-0.0328827	37	371	5.09123e-05
38.4667	-0.0328949	37.1	372	-0.000300122
38.5667	-0.0328827	37.2	373	0.000396793
38.6667	-0.0328735	37.3	374	-1.52489e-05
38.7667	-0.0328888	37.4	375	-0.000345843
38.8667	-0.0328705	37.5	376	0.00054424
38.9667	-0.0328827	37.6	377	-0.000488336
39.0667	-0.0328766	37.7	378	0.000315333
39.1667	-0.0328705	37.8	379	3.72529e-08
39.2667	-0.0328613	37.9	380	0.000116875
39.3667	-0.0328705	38	381	-0.000254239
39.4667	-0.0328613	38.1	382	0.000305064
39.5667	-0.0328674	38.2	383	-0.000249172
39.6667	-0.0328644	38.3	384	0.000157642
39.7667	-0.0328705	38.4	385	-0.000167762
39.8667	-0.0328644	38.5	386	0.000193169
39.9667	-0.0328522	38.6	387	0.000132335
40.0667	-0.0328613	38.7	388	-0.000289989
40.1667	-0.032843	38.8	389	0.000483257
40.2667	-0.0328552	38.9	390	-0.000467946
40.3667	-0.0328674	39	391	-2.03898e-05
40.4667	-0.0328461	39.1	392	0.000493352
40.5667	-0.0328583	39.2	393	-0.000513655
40.6667	-0.0328491	39.3	394	0.00038142
40.7667	-0.0328369	39.4	395	7.63684e-05
40.8667	-0.0328461	39.5	396	-0.000279819
40.9667	-0.0328522	39.6	397	3.56262e-05
41.0667	-0.0328522	39.7	398	4.06802e-05
41.1667	-0.0328461	39.8	399	9.15179e-05
41.2667	-0.03284	39.9	400	4.07298e-05
41.3667	-0.0328461	40	401	-0.00016287
41.4667	-0.0328308	40.1	402	0.000371312
41.5667	-0.0328339	40.2	403	-0.000254326
41.6667	-0.0328339	40.3	404	8.65012e-05
41.7667	-0.0328247	40.4	405	0.000157729
41.8667	-0.0328247	40.5	406	-0.000106879
41.9667	-0.0328339	40.6	407	-0.000137376
42.0667	-0.0328308	40.7	408	0.000162808
42.1667	-0.0328186	40.8	409	0.000157642
42.2667	-0.0328156	40.9	410	-7.62815e-05
42.3667	-0.0328217	41	411	-0.000106816
42.4667	-0.0328247	41.1	412	2.54437e-05
42.5667	-0.0328217	41.2	413	7.1153e-05
42.6667	-0.0328125	41.3	414	0.00012214
42.7667	-0.0328186	41.4	415	-0.000208579
42.8667	-0.0328003	41.5	416	0.000437448
42.9667	-0.0328156	41.6	417	-0.000513767
43.0667	-0.0328156	41.7	418	0.000239027
43.1667	-0.0328003	41.8	419	0.000228857
43.2667	-0.0328064	41.9	420	-0.000289902
43.3667	-0.0328003	42	421	0.000233923
43.4667	-0.0328003	42.1	422	-9.15676e-05
43.5667	-0.0327942	42.2	423	0.000132273
43.6667	-0.0328064	42.3	424	-0.000295068
43.7667	-0.0328033	42.4	425	0.000218724
43.8667	-0.0327881	42.5	426	0.000203488
43.9667	-0.0327911	42.6	427	-0.000223766
44.0667	-0.0327911	42.7	428	8.64391e-05
44.1667	-0.0328003	42.8	429	-0.000178056
44.2667	-0.0327881	42.9	430	0.000330607
44.3667	-0.032785	43	431	-0.000116974
44.4667	-0.0327728	43.1	432	0.000228857
44.5667	-0.032785	43.2	433	-0.000356026
44.6667	-0.0327972	43.3	434	-4.06553e-05
44.7667	-0.0327972	43.4	435	0.000101738
44.8667	-0.0327789	43.5	436	0.000295018
44.9667	-0.0327728	43.6	437	-0.0001018
45.0667	-0.0327789	43.7	438	-0.000121966
45.1667	-0.032782	43.8	439	3.55517e-05
45.2667	-0.0327789	43.9	440	7.12399e-05
45.3667	-0.0327667	44	441	0.000178007
45.4667	-0.0327667	44.1	442	-0.000132198
45.5667	-0.0327728	44.2	443	-7.12399e-05
45.6667	-0.0327698	44.3	444	0.000127181
45.7667	-0.0327637	44.4	445	5.59538e-05
45.8667	-0.0327728	44.5	446	-0.000228969
45.9667	-0.0327606	44.6	447	0.000351046
46.0667	-0.0327515	44.7	448	-5.07881e-06
46.1667	-0.0327576	44.8	449	-0.000178056
46.2667	-0.0327667	44.9	450	-6.60121e-05
46.3667	-0.0327576	45	451	0.000254239
46.4667	-0.0327606	45.1	452	-0.000193206
46.5667	-0.0327484	45.2	453	0.000289902
46.6667	-0.0327423	45.3	454	-4.07671e-05
46.7667	-0.0327606	45.4	455	-0.000366121
46.8667	-0.0327454	45.5	456	0.00051368
46.9667	-0.0327545	45.6	457	-0.000406938
47.0667	-0.0327423	45.7	458	0.00038147
47.1667	-0.0327484	45.8	459	-0.000284761
47.2667	-0.0327393	45.9	460	0.00027962
47.3667	-0.0327332	46	461	-1.51868e-05
47.4667	-0.0327332	46.1	462	-4.07422e-05
47.5667	-0.0327393	46.2	463	-9.16173e-05
47.6667	-0.0327362	46.3	464	0.000127243
47.7667	-0.0327362	46.4	465	-5.59414e-05
47.8667	-0.0327332	46.5	466	6.61363e-05
47.9667	-0.0327393	46.6	467	-0.000147596
48.0667	-0.0327209	46.7	468	0.000417158
48.1667	-0.0327423	46.8	469	-0.000625662
48.2667	-0.0327332	46.9	470	0.000478203
48.3667	-0.032724	47	471	-1.03066e-05
48.4667	-0.0327209	47.1	472	-2.02532e-05
48.5667	-0.0327118	47.2	473	0.000162708
48.6667	-0.0327332	47.3	474	-0.000488187
48.7667	-0.0327179	47.4	475	0.000559414
48.8667	-0.0327301	47.5	476	-0.00047305
48.9667	-0.0327332	47.6	477	0.000137376
49.0667	-0.0327271	47.7	478	0.00010673
49.1667	-0.0327301	47.8	479	-0.00013724
49.2667	-0.032724	47.9	480	0.000167775
49.3667	-0.0327148	48	481	8.64888e-05
49.4667	-0.0327148	48.1	482	-8.64764e-05
49.5667	-0.0327026	48.2	483	0.000254338
49.6667	-0.0327118	48.3	484	-0.000310341
49.7667	-0.0326965	48.4	485	0.000427316
49.8667	-0.0326996	48.5	486	-0.000264458
49.9667	-0.0327057	48.6	487	-2.54189e-05
50.0667	-0.0327057	48.7	488	6.10575e-05
50.1667	-0.0326874	48.8	489	0.000315358
50.2667	-0.0327026	48.9	490	-0.000493402
50.3667	-0.0327057	49	491	0.00018311
50.4667	-0.0326996	49.1	492	9.66464e-05
50.5667	-0.0326782	49.2	493	0.00031023
50.6667	-0.0327148	49.3	494	-0.000900253
50.7667	-0.0326996	49.4	495	0.000778188
50.8667	-0.0327179	49.5	496	-0.000635758
50.9667	-0.0327148	49.6	497	0.000320375
51.0667	-0.0326813	49.7	498	0.000518809
51.1667	-0.0326904	49.8	499	-0.000549219
51.2667	-0.0326935	49.9	500	0.000162671
51.3667	-0.0326874	50	501	0.000117036
51.4667	-0.0326965	50.1	502	-0.000249321
51.5667	-0.0326843	50.2	503	0.000351046
51.6667	-0.0326782	50.3	504	-6.11072e-05
51.7667	-0.0326843	50.4	505	-0.000142393
51.8667	-0.0326874	50.5	506	3.56138e-05
51.9667	-0.0326813	50.6	507	0.000127082
52.0667	-0.0326782	50.7	508	-2.53816e-05
52.1667	-0.0326782	50.8	509	-1.53109e-05
52.2667	-0.0326782	50.9	510	1.01452e-05
52.3667	-0.0326691	51	511	0.000167862
52.4667	-0.0326874	51.1	512	-0.00044249
52.5667	-0.0326721	51.2	513	0.00052385
52.6667	-0.0326691	51.3	514	-0.000183135
52.7667	-0.032666	51.4	515	7.12151e-05
52.8667	-0.0326691	51.5	516	-8.13231e-05
52.9667	-0.0326599	51.6	517	0.000213633
53.0667	-0.0326813	51.7	518	-0.000508663
53.1667	-0.0326721	51.8	519	0.00044768
53.2667	-0.0326599	51.9	520	4.57217e-05
53.3667	-0.0326599	52	521	-0.000111846
53.4667	-0.032663	52.1	522	-1.53109e-05
53.5667	-0.0326447	52.2	523	0.000371362
53.6667	-0.032666	52.3	524	-0.000615492
53.7667	-0.032666	52.4	525	0.000310317
53.8667	-0.0326508	52.5	526	0.000208542
53.9667	-0.0326477	52.6	527	-0.000122078
54.0667	-0.0326416	52.7	528	0.000127169
54.1667	-0.0326508	52.8	529	-0.000228969
54.2667	-0.0326385	52.9	530	0.000351046
54.3667	-0.0326508	53	531	-0.000396781
54.4667	-0.0326508	53.1	532	0.000183148
54.5667	-0.0326538	53.2	533	-9.66092e-05
54.6667	-0.0326385	53.3	534	0.000315321
54.7667	-0.0326385	53.4	535	-0.000188189
54.8667	-0.0326324	53.5	536	0.000162721
54.9667	-0.0326355	53.6	537	-0.000127157
55.0667	-0.0326477	53.7	538	-0.000167837
55.1667	-0.0326508	53.8	539	7.62691e-05
55.2667	-0.0326355	53.9	540	0.00027469
55.3667	-0.0326294	54	541	-7.62194e-05
55.4667	-0.0326538	54.1	542	-0.000467983
55.5667	-0.0326233	54.2	543	0.000864677
55.6667	-0.0326385	54.3	544	-0.000717168
55.7667	-0.0326355	54.4	545	0.000335673
55.8667	-0.0326263	54.5	546	8.14597e-05
55.9667	-0.0326263	54.6	547	-9.67085e-05
56.0667	-0.0326324	54.7	548	-8.14472e-05
56.1667	-0.0326324	54.8	549	7.12151e-05
56.2667	-0.0326141	54.9	550	0.000315395
56.3667	-0.0326294	55	551	-0.000493352
56.4667	-0.0326324	55.1	552	0.000183061
56.5667	-0.0326172	55.2	553	0.000264471
56.6667	-0.0326141	55.3	554	-0.000132198
56.7667	-0.0326233	55.4	555	-0.000152613
56.8667	-0.0326202	55.5	556	0.000172928
56.9667	-0.032608	55.6	557	0.000157729
57.0667	-0.0326202	55.7	558	-0.000356088
57.1667	-0.0326111	55.8	559	0.000351034
57.2667	-0.0326111	55.9	560	-0.000147571
57.3667	-0.0326202	56	561	-0.000137376
57.4667	-0.0326141	56.1	562	0.000218836
57.5667	-0.032608	56.2	563	1.01204e-05
57.6667	-0.032608	56.3	564	-5.08502e-05
57.7667	-0.032608	56.4	565	2.03401e-05
57.8667	-0.0326019	56.5	566	0.000111858
57.9667	-0.032605	56.6	567	-0.000127157
58.0667	-0.0326141	56.7	568	-0.000111808
58.1667	-0.0326019	56.8	569	0.00032035
58.2667	-0.032605	56.9	570	-0.000228869
58.3667	-0.0325897	57	571	0.000356063
58.4667	-0.0325989	57.1	572	-0.000355964
58.5667	-0.032605	57.2	573	4.57093e-05
58.6667	-0.032605	57.3	574	4.07422e-05
58.7667	-0.0326019	57.4	575	3.55889e-05
58.8667	-0.0325928	57.5	576	0.000132235
58.9667	-0.032608	57.6	577	-0.000376391
59.0667	-0.0325745	57.7	578	0.00082396
59.1667	-0.0325928	57.8	579	-0.000778138
59.2667	-0.0325928	57.9	580	0.000325491
59.3667	-0.0325958	58	581	-0.000116962
59.4667	-0.0325836	58.1	582	0.000259379
59.5667	-0.0325897	58.2	583	-0.000264496
59.6667	-0.0325928	58.3	584	5.60159e-05
59.7667	-0.0325867	58.4	585	0.000127082
59.8667	-0.0325897	58.5	586	-0.000137327
59.9667	-0.0325928	58.6	587	4.96705e-08
60.0667	-0.0325745	58.7	588	0.00036108
60.1667	-0.0325684	58.8	589	-0.000111796
60.2667	-0.0325928	58.9	590	-0.000457813
60.3667	-0.0325775	59	591	0.000584933
60.4667	-0.0325714	59.1	592	-0.000147546
60.5667	-0.0325562	59.2	593	0.000259379
60.6667	-0.0325745	59.3	594	-0.000493377
60.7667	-0.0325806	59.4	595	0.000152662
60.8667	-0.0325836	59.5	596	-4.58211e-05
60.9667	-0.0325623	59.6	597	0.000406913
61.0667	-0.0325775	59.7	598	-0.000539136
61.1667	-0.0325775	59.8	599	0.000249222
61.2667	-0.0325775	59.9	600	-5.08626e-05