File: data/20200205/OCP_p30_1.txt
Time (s)	WE(1).Potential (V)	Corrected time (s)	Index	dWE(1).Potential/dt (V/s)	OCP value (V)
1.25574	0.0052063	0	1	0	0.00534267
1.35574	0.00519409	0.1	2	-0.000122073
1.45574	0.0052063	0.2	3	0.000244146
1.55574	0.0052002	0.3	4	-0.000295015
1.65574	0.00521545	0.4	5	0.000391641
1.75574	0.0052063	0.5	6	-0.000366205
1.85574	0.00520325	0.6	7	0.000101722
1.95574	0.0052002	0.7	8	-5.08657e-05
2.05574	0.00520935	0.8	9	0.000193277
2.15574	0.00520325	0.9	10	-0.000228876
2.25574	0.00520935	1	11	0.000213617
2.35574	0.0052124	1.1	12	-3.55936e-05
2.45574	0.00521851	1.2	13	9.66278e-05
2.55574	0.00520935	1.3	14	-0.00022888
2.65574	0.00518799	1.4	15	-0.000264478
2.75574	0.00521545	1.5	16	0.00072224
2.85574	0.00519714	1.6	17	-0.00072733
2.95574	0.00520325	1.7	18	0.000417065
3.05574	0.00520935	1.8	19	-2.03432e-05
3.15574	0.00519714	1.9	20	-0.000274649
3.25574	0.0052063	2	21	0.000330601
3.35574	0.0052002	2.1	22	-0.000259403
3.45574	0.00520935	2.2	23	0.000269573
3.55574	0.00519714	2.3	24	-0.000350944
3.65574	0.00520325	2.4	25	0.00028482
3.75574	0.00519714	2.5	26	-0.000223789
3.85574	0.00520325	2.6	27	0.000203443
3.95574	0.00520935	2.7	28	2.03463e-05
4.05574	0.0052002	2.8	29	-0.000218707
4.15574	0.0052124	2.9	30	0.000350953
4.25574	0.00520935	3	31	-0.000228893
4.35574	0.00520325	3.1	32	-3.5592e-05
4.45574	0.0052063	3.2	33	0.000116985
4.55574	0.00519714	3.3	34	-0.000223795
4.65574	0.0052063	3.4	35	0.000284829
4.75574	0.00520935	3.5	36	-8.13821e-05
4.85574	0.0052002	3.6	37	-0.000172929
4.95574	0.00519714	3.7	38	6.10358e-05
5.05574	0.0052063	3.8	39	0.000172929
5.15574	0.0052002	3.9	40	-0.000228885
5.25574	0.00522766	4	41	0.000605271
5.35574	0.00520935	4.1	42	-0.000676485
5.45574	0.0052002	4.2	43	0.000137336
5.55574	0.00520935	4.3	44	0.000213619
5.65574	0.00520325	4.4	45	-0.00024922
5.75574	0.0052063	4.5	46	0.000157676
5.85574	0.00520325	4.6	47	-0.0001119
5.95574	0.0052063	4.7	48	0.000101731
6.05574	0.00519714	4.8	49	-0.000213624
6.15574	0.00520935	4.9	50	0.000340771
6.25574	0.00521545	5	51	-6.10296e-05
6.35574	0.0052063	5.1	52	-0.000198361
6.45574	0.00520935	5.2	53	0.0001831
6.55574	0.0052124	5.3	54	-1.01607e-05
6.65574	0.00520325	5.4	55	-0.00019329
6.75574	0.0052063	5.5	56	0.000172942
6.85574	0.0052063	5.6	57	-6.61192e-05
6.95574	0.00520935	5.7	58	6.61177e-05
7.05574	0.00521545	5.8	59	7.6297e-05
7.15574	0.0052002	5.9	60	-0.000340786
7.25574	0.00520935	6	61	0.00036621
7.35574	0.0052124	6.1	62	-0.000101716
7.45574	0.00521545	6.2	63	5.08471e-05
7.55574	0.00521545	6.3	64	-2.54298e-05
7.65574	0.00520935	6.4	65	-0.000101727
7.75574	0.00521545	6.5	66	0.000183107
7.85574	0.00520935	6.6	67	-0.000203454
7.95574	0.00520935	6.7	68	9.15568e-05
8.05574	0.00521851	6.8	69	0.000147506
8.15574	0.0052063	6.9	70	-0.000330605
8.25574	0.00521545	7	71	0.000340772
8.35574	0.0052124	7.1	72	-0.000203444
8.45574	0.00522461	7.2	73	0.000289905
8.55574	0.00522461	7.3	74	-0.000152579
8.65574	0.00521545	7.4	75	-0.000127158
8.75574	0.00519409	7.5	76	-0.000284834
8.85574	0.00521545	7.6	77	0.000610353
8.95574	0.00520935	7.7	78	-0.000432335
9.05574	0.00520325	7.8	79	3.05241e-05
9.15574	0.0052002	7.9	80	-5.09433e-06
9.25574	0.00521851	8	81	0.000350955
9.35574	0.00522156	8.1	82	-0.000167843
9.45574	0.00520935	8.2	83	-0.000198369
9.55574	0.00522156	8.3	84	0.000376397
9.65574	0.00521851	8.4	85	-0.000239061
9.75574	0.0052124	8.5	86	-3.55998e-05
9.85574	0.00520935	8.6	87	5.07571e-06
9.95574	0.00520935	8.7	88	1.52675e-05
10.0557	0.00521851	8.8	89	0.000157678
10.1557	0.00522156	8.9	90	-5.08611e-05
10.2557	0.00523071	9	91	0.000162753
10.3557	0.00521851	9.1	92	-0.000320431
10.4557	0.0052063	9.2	93	-5.08595e-05
10.5557	0.00522461	9.3	94	0.000437414
10.6557	0.00520935	9.4	95	-0.000534051
10.7557	0.00521851	9.5	96	0.000406904
10.8557	0.00521851	9.6	97	-0.000157678
10.9557	0.0052063	9.7	98	-0.000193273
11.0557	0.00522156	9.8	99	0.000422162
11.1557	0.00523071	9.9	100	-5.08688e-05
11.2557	0.00523071	10	101	-5.59507e-05
11.3557	0.00523071	10.1	102	3.05132e-05
11.4557	0.00521545	10.2	103	-0.000279748
11.5557	0.00522461	10.3	104	0.000345865
11.6557	0.00520935	10.4	105	-0.000437414
11.7557	0.0052063	10.5	106	0.000152597
11.8557	0.00521851	10.6	107	0.000208531
11.9557	0.00521851	10.7	108	-0.000152586
12.0557	0.00522766	10.8	109	0.000208539
12.1557	0.00521545	10.9	110	-0.000330619
12.2557	0.00522461	11	111	0.000340783
12.3557	0.00521545	11.1	112	-0.000315347
12.4557	0.00522156	11.2	113	0.000249231
12.5557	0.0052124	11.3	114	-0.000269573
12.6557	0.00523071	11.4	115	0.000462839
12.7557	0.00522766	11.5	116	-0.000300081
12.8557	0.00521851	11.6	117	-7.12167e-05
12.9557	0.0052124	11.7	118	-1.5252e-05
13.0557	0.00522156	11.8	119	0.000208534
13.1557	0.00522461	11.9	120	-7.12089e-05
13.2557	0.0052124	12	121	-0.000228871
13.3557	0.00522156	12.1	122	0.000320428
13.4557	0.00523987	12.2	123	0.000188191
13.5557	0.00522461	12.3	124	-0.000462844
13.6557	0.00522156	12.4	125	0.000183114
13.7557	0.00522461	12.5	126	4.06817e-05
13.8557	0.00523071	12.6	127	6.61254e-05
13.9557	0.00523376	12.7	128	-5.08812e-06
14.0557	0.00522461	12.8	129	-0.000183109
14.1557	0.00522461	12.9	130	0.00011699
14.2557	0.00523071	13	131	8.13789e-05
14.3557	0.00522766	13.1	132	-0.000127155
14.4557	0.00522156	13.2	133	-5.59523e-05
14.5557	0.00522461	13.3	134	0.000116983
14.6557	0.00522461	13.4	135	-5.5943e-05
14.7557	0.00521545	13.5	136	-0.000157676
14.8557	0.00523071	13.6	137	0.00038655
14.9557	0.00522156	13.7	138	-0.000376377
15.0557	0.00522461	13.8	139	0.000213617
15.1557	0.00523376	13.9	140	0.000101735
15.2557	0.00523071	14	141	-0.000152597
15.3557	0.00523071	14.1	142	6.61192e-05
15.4557	0.00522766	14.2	143	-6.61177e-05
15.5557	0.00522461	14.3	144	-2.03556e-05
15.6557	0.00523376	14.4	145	0.00019329
15.7557	0.00521851	14.5	146	-0.000396732
15.8557	0.00523071	14.6	147	0.000432328
15.9557	0.00523376	14.7	148	-0.000137327
16.0557	0.00522461	14.8	149	-0.000162764
16.1557	0.00523071	14.9	150	0.000228885
16.2557	0.00521851	15	151	-0.000325522
16.3557	0.00522461	15.1	152	0.000274655
16.4557	0.00523376	15.2	153	5.5957e-05
16.5557	0.00523987	15.3	154	2.54251e-05
16.6557	0.00523682	15.4	155	-9.66262e-05
16.7557	0.00522461	15.5	156	-0.000167855
16.8557	0.00523071	15.6	157	0.000244145
16.9557	0.00523071	15.7	158	-0.000111905
17.0557	0.00523682	15.8	159	0.000132249
17.1557	0.00523682	15.9	160	-7.12058e-05
17.2557	0.00522766	16	161	-0.0001475
17.3557	0.00523987	16.1	162	0.000330598
17.4557	0.00523987	16.2	163	-0.000172925
17.5557	0.00522461	16.3	164	-0.000239053
17.6557	0.00523376	16.4	165	0.00034587
17.7557	0.00523987	16.5	166	-4.57823e-05
17.8557	0.00524292	16.6	167	1.5269e-05
17.9557	0.00524292	16.7	168	-1.52675e-05
18.0557	0.00523987	16.8	169	-4.57823e-05
18.1557	0.00523071	16.9	170	-0.000132237
18.2557	0.00523987	17	171	0.000264482
18.3557	0.00522766	17.1	172	-0.000361116
18.4557	0.00523682	17.2	173	0.000340774
18.5557	0.00524597	17.3	174	2.03416e-05
18.6557	0.00523682	17.4	175	-0.000244132
18.7557	0.00523376	17.5	176	8.13758e-05
18.8557	0.00523376	17.6	177	5.08812e-06
18.9557	0.00524292	17.7	178	0.000157676
19.0557	0.00524292	17.8	179	-0.000106816
19.1557	0.00523682	17.9	180	-8.13789e-05
19.2557	0.00524292	18	181	0.000183109
19.3557	0.00524292	18.1	182	-9.15568e-05
19.4557	0.00523682	18.2	183	-9.15521e-05
19.5557	0.00523376	18.3	184	1.52597e-05
19.6557	0.00524292	18.4	185	0.000183109
19.7557	0.00524902	18.5	186	-5.09433e-06
19.8557	0.00525208	18.6	187	1.52675e-05
19.9557	0.00523987	18.7	188	-0.00023906
20.0557	0.00524597	18.8	189	0.000264489
20.1557	0.00524292	18.9	190	-0.000167846
20.2557	0.00524292	19	191	5.5943e-05
20.3557	0.00522766	19.1	192	-0.000289918
20.4557	0.00523071	19.2	193	0.000233959
20.5557	0.00523987	19.3	194	8.13836e-05
20.6557	0.00523376	19.4	195	-0.000208531
20.7557	0.00524292	19.5	196	0.000269571
20.8557	0.00524292	19.6	197	-0.000127161
20.9557	0.00524292	19.7	198	3.05163e-05
21.0557	0.00525818	19.8	199	0.000279743
21.1557	0.00524597	19.9	200	-0.000401824
21.2557	0.00524292	20	201	0.000137337
21.3557	0.00525513	20.1	202	0.000218698
21.4557	0.00523987	20.2	203	-0.000432323
21.5557	0.00524597	20.3	204	0.000330605
21.6557	0.00524597	20.4	205	-0.000122076
21.7557	0.00525513	20.5	206	0.000188191
21.8557	0.00523987	20.6	207	-0.000386552
21.9557	0.00526123	20.7	208	0.000600178
22.0557	0.00524902	20.8	209	-0.000523886
22.1557	0.00524597	20.9	210	0.000157668
22.2557	0.00523987	21	211	-0.000116983
22.3557	0.00525513	21.1	212	0.000340783
22.4557	0.00523682	21.2	213	-0.000534048
22.5557	0.00524292	21.3	214	0.00037638
22.6557	0.00524597	21.4	215	-7.63048e-05
22.7557	0.00525208	21.5	216	9.66495e-05
22.8557	0.00525818	21.6	217	5.08611e-05
22.9557	0.00524902	21.7	218	-0.000218715
23.0557	0.00524902	21.8	219	0.00012716
23.1557	0.00524292	21.9	220	-0.000142413
23.2557	0.00525818	22	221	0.000350947
23.3557	0.00524902	22.1	222	-0.000366215
23.4557	0.00525513	22.2	223	0.000269573
23.5557	0.00524292	22.3	224	-0.000325511
23.6557	0.00525818	22.4	225	0.000442496
23.7557	0.00525208	22.5	226	-0.000330605
23.8557	0.00523376	22.6	227	-0.000213622
23.9557	0.00524597	22.7	228	0.000417069
24.0557	0.00526123	22.8	229	7.62908e-05
24.1557	0.00525208	22.9	230	-0.000305169
24.2557	0.00525818	23	231	0.000269571
24.3557	0.00525208	23.1	232	-0.000213624
24.4557	0.00525208	23.2	233	9.15583e-05
24.5557	0.00525513	23.3	234	3.55998e-05
24.6557	0.00523987	23.4	235	-0.000315343
24.7557	0.00524292	23.5	236	0.000244146
24.8557	0.00525513	23.6	237	0.000137316
24.9557	0.00524292	23.7	238	-0.000356024
25.0557	0.00524597	23.8	239	0.000239038
25.1557	0.00524292	23.9	240	-0.000132234
25.2557	0.00526733	24	241	0.000493363
25.3557	0.00524597	24.1	242	-0.000686648
25.4557	0.00525208	24.2	243	0.000442513
25.5557	0.00524597	24.3	244	-0.000254322
25.6557	0.00525208	24.4	245	0.00020346
25.7557	0.00524597	24.5	246	-0.00020346
25.8557	0.00525208	24.6	247	0.00020346
25.9557	0.00524597	24.7	248	-0.00020346
26.0557	0.00525208	24.8	249	0.00020346
26.1557	0.00525818	24.9	250	2.03432e-05
26.2557	0.00526733	25	251	0.000116983
26.3557	0.00525513	25.1	252	-0.000310264
26.4557	0.00525208	25.2	253	0.000116997
26.5557	0.00525818	25.3	254	0.000106807
26.6557	0.00524902	25.4	255	-0.000249233
26.7557	0.00525818	25.5	256	0.000295009
26.8557	0.00525818	25.6	257	-0.000137334
26.9557	0.00525818	25.7	258	3.05163e-05
27.0557	0.00524597	25.8	259	-0.000223805
27.1557	0.00524902	25.9	260	0.00019837
27.2557	0.00526733	26	261	0.000259403
27.3557	0.00525208	26.1	262	-0.000483192
27.4557	0.00524902	26.2	263	0.000183104
27.5557	0.00525513	26.3	264	9.66371e-05
27.6557	0.00526123	26.4	265	3.05194e-05
27.7557	0.00525818	26.5	266	-0.00010681
27.8557	0.00525208	26.6	267	-5.59523e-05
27.9557	0.00525818	26.7	268	0.000172937
28.0557	0.00526428	26.8	269	2.03385e-05
28.1557	0.00524902	26.9	270	-0.000330604
28.2557	0.00525818	27	271	0.000366213
28.3557	0.00525513	27.1	272	-0.000213633
28.4557	0.00527039	27.2	273	0.000345874
28.5557	0.00524292	27.3	274	-0.000691726
28.6557	0.00525513	27.4	275	0.000595079
28.7557	0.00527039	27.5	276	4.57854e-05
28.8557	0.00524597	27.6	277	-0.000584922
28.9557	0.00526733	27.7	278	0.000727339
29.0557	0.00526123	27.8	279	-0.000442513
29.1557	0.00524902	27.9	280	-8.13758e-05
29.2557	0.00524292	28	281	1.01731e-05
29.3557	0.00525818	28.1	282	0.000310258
29.4557	0.00526123	28.2	283	-0.000142424
29.5557	0.00525513	28.3	284	-9.66356e-05
29.6557	0.00525513	28.4	285	8.13836e-05
29.7557	0.00525818	28.5	286	3.56107e-05
29.8557	0.00526428	28.6	287	7.62831e-05
29.9557	0.00526428	28.7	288	-6.10311e-05
30.0557	0.00525818	28.8	289	-9.15505e-05
30.1557	0.00525513	28.9	290	1.52489e-05
30.2557	0.00526428	29	291	0.000183117
30.3557	0.00525818	29.1	292	-0.000228883
30.4557	0.00526123	29.2	293	0.000157662
30.5557	0.00526428	29.3	294	6.20882e-09
30.6557	0.00526428	29.4	295	-2.54329e-05
30.7557	0.00526733	29.5	296	6.6127e-05
30.8557	0.00525818	29.6	297	-0.00020345
30.9557	0.00526428	29.7	298	0.000228876
31.0557	0.00526428	29.8	299	-0.000101722
31.1557	0.00526123	29.9	300	-3.56091e-05
31.2557	0.00527344	30	301	0.000259404
31.3557	0.00525818	30.1	302	-0.000432338
31.4557	0.00527344	30.2	303	0.000498453
31.5557	0.00526428	30.3	304	-0.000396732
31.6557	0.00526428	30.4	305	0.000157678
31.7557	0.00526123	30.5	306	-8.64717e-05
31.8557	0.00526733	30.6	307	0.000147509
31.9557	0.00525513	30.7	308	-0.000305182
32.0557	0.00526733	30.8	309	0.00038657
32.1557	0.00526733	30.9	310	-0.000183107
32.2557	0.00526123	31	311	-7.12136e-05
32.3557	0.00527344	31.1	312	0.000295009
32.4557	0.00525818	31.2	313	-0.000442512
32.5557	0.00527039	31.3	314	0.000442499
32.6557	0.00527344	31.4	315	-0.000137316
32.7557	0.00526428	31.5	316	-0.000162772
32.8557	0.00528259	31.6	317	0.000452686
32.9557	0.00526733	31.7	318	-0.000523883
33.0557	0.00526733	31.8	319	0.000239058
33.1557	0.00527039	31.9	320	5.08192e-06
33.2557	0.00526428	32	321	-0.000147494
33.3557	0.00526733	32.1	322	0.00013733
33.4557	0.00526733	32.2	323	-5.59461e-05
33.5557	0.00527039	32.3	324	6.61177e-05
33.6557	0.00527649	32.4	325	7.6297e-05
33.7557	0.00527649	32.5	326	-6.1042e-05
33.8557	0.00527649	32.6	327	2.03416e-05
33.9557	0.00526428	32.7	328	-0.000223794
34.0557	0.00527344	32.8	329	0.000310264
34.1557	0.00527954	32.9	330	-3.56107e-05
34.2557	0.00527039	33	331	-0.000208535
34.3557	0.00527344	33.1	332	0.000183115
34.4557	0.00526428	33.2	333	-0.000233979
34.5557	0.00528564	33.3	334	0.000508628
34.6557	0.00527649	33.4	335	-0.000447589
34.7557	0.00528259	33.5	336	0.000289921
34.8557	0.00527344	33.6	337	-0.000269573
34.9557	0.00527039	33.7	338	7.11996e-05
35.0557	0.00527649	33.8	339	0.00011699
35.1557	0.00527344	33.9	340	-0.000137328
35.2557	0.00527954	34	341	0.000167838
35.3557	0.00527344	34.1	342	-0.000193271
35.4557	0.00528564	34.2	343	0.000315338
35.5557	0.00528259	34.3	344	-0.000218693
35.6557	0.00528259	34.4	345	7.62924e-05
35.7557	0.00527649	34.5	346	-0.000122076
35.8557	0.00527649	34.6	347	7.12058e-05
35.9557	0.0052887	34.7	348	0.000203454
36.0557	0.00527039	34.8	349	-0.000478119
36.1557	0.00527649	34.9	350	0.000366218
36.2557	0.00527039	35	351	-0.000244145
36.3557	0.00528564	35.1	352	0.000371301
36.4557	0.00527649	35.2	353	-0.000366211
36.5557	0.00528259	35.3	354	0.000269576
36.6557	0.00528259	35.4	355	-0.000101724
36.7557	0.00528564	35.5	356	7.62908e-05
36.8557	0.0052887	35.6	357	2.03556e-05
36.9557	0.00527344	35.7	358	-0.000305185
37.0557	0.00527344	35.8	359	0.000188191
37.1557	0.00528259	35.9	360	0.000116985
37.2557	0.00529175	36	361	6.10311e-05
37.3557	0.0052887	36.1	362	-0.000132237
37.4557	0.00527039	36.2	363	-0.000269584
37.5557	0.00527649	36.3	364	0.000315355
37.6557	0.00526733	36.4	365	-0.000300086
37.7557	0.00527954	36.5	366	0.000350949
37.8557	0.00527344	36.6	367	-0.000284826
37.9557	0.00528259	36.7	368	0.000279741
38.0557	0.00527954	36.8	369	-0.000183104
38.1557	0.0052887	36.9	370	0.000233971
38.2557	0.00527649	37	371	-0.000340793
38.3557	0.00528564	37.1	372	0.000340783
38.4557	0.00527954	37.2	373	-0.000259393
38.5557	0.00527649	37.3	374	4.57683e-05
38.6557	0.00527954	37.4	375	7.12105e-05
38.7557	0.00528259	37.5	376	1.01762e-05
38.8557	0.00527344	37.6	377	-0.000193277
38.9557	0.00528564	37.7	378	0.000340771
39.0557	0.00529175	37.8	379	-6.10296e-05
39.1557	0.00528564	37.9	380	-0.000142419
39.2557	0.00527954	38	381	-2.03385e-05
39.3557	0.00528564	38.1	382	0.000162755
39.4557	0.00528259	38.2	383	-0.000147489
39.5557	0.0052948	38.3	384	0.000279738
39.6557	0.00528259	38.4	385	-0.000376377
39.7557	0.00528564	38.5	386	0.000239049
39.8557	0.0052948	38.6	387	9.15614e-05
39.9557	0.0052887	38.7	388	-0.000208539
40.0557	0.0052887	38.8	389	0.000101721
40.1557	0.00528259	38.9	390	-0.000132242
40.2557	0.0053009	39	391	0.000406899
40.3557	0.0052887	39.1	392	-0.000457753
40.4557	0.00529175	39.2	393	0.000259383
40.5557	0.0052948	39.3	394	-2.03385e-05
40.6557	0.00529785	39.4	395	3.0521e-05
40.7557	0.00529785	39.5	396	-2.54282e-05
40.8557	0.00528564	39.6	397	-0.000213627
40.9557	0.00528564	39.7	398	0.000142421
41.0557	0.0052948	39.8	399	0.00012716
41.1557	0.0053009	39.9	400	5.08036e-06
41.2557	0.0052948	40	401	-0.00015258
41.3557	0.0052887	40.1	402	-2.03463e-05
41.4557	0.00528259	40.2	403	-6.10373e-05
41.5557	0.00528259	40.3	404	5.08688e-05
41.6557	0.00529785	40.4	405	0.000259403
41.7557	0.00529785	40.5	406	-0.000178016
41.8557	0.00529785	40.6	407	5.08657e-05
41.9557	0.00529175	40.7	408	-0.000111905
42.0557	0.00529785	40.8	409	0.000183114
42.1557	0.00529785	40.9	410	-9.15521e-05
42.2557	0.00529785	41	411	2.03494e-05
42.3557	0.00530396	41.1	412	0.000111898
42.4557	0.00530701	41.2	413	-1.52706e-05
42.5557	0.0053009	41.3	414	-0.000127153
42.6557	0.00529785	41.4	415	2.54422e-05
42.7557	0.0052887	41.5	416	-0.000152591
42.8557	0.00529785	41.6	417	0.000264485
42.9557	0.0053009	41.7	418	-8.13821e-05
43.0557	0.0052887	41.8	419	-0.000228871
43.1557	0.0052887	41.9	420	0.000152579
43.2557	0.0052887	42	421	-4.0691e-05
43.3557	0.0053009	42.1	422	0.000223789
43.4557	0.0052948	42.2	423	-0.000254302
43.5557	0.00530701	42.3	424	0.000335684
43.6557	0.00529175	42.4	425	-0.000442507
43.7557	0.00529785	42.5	426	0.000330613
43.8557	0.00531006	42.6	427	0.000101722
43.9557	0.0053009	42.7	428	-0.000289918
44.0557	0.00529785	42.8	429	9.15645e-05
44.1557	0.00529785	42.9	430	5.08502e-06
44.2557	0.0053009	43	431	4.57729e-05
44.3557	0.00529785	43.1	432	-9.15397e-05
44.4557	0.0052887	43.2	433	-0.000122075
44.5557	0.0053009	43.3	434	0.000320426
44.6557	0.00529785	43.4	435	-0.000228866
44.7557	0.00530701	43.5	436	0.000244129
44.8557	0.00530396	43.6	437	-0.000172926
44.9557	0.0052948	43.7	438	-0.000101735
45.0557	0.00529175	43.8	439	4.06895e-05
45.1557	0.00530396	43.9	440	0.000228886
45.2557	0.00530701	44	441	-9.66526e-05
45.3557	0.00530396	44.1	442	-5.08533e-05
45.4557	0.00529785	44.2	443	-6.61254e-05
45.5557	0.00530396	44.3	444	0.000172937
45.6557	0.00530396	44.4	445	-9.15568e-05
45.7557	0.0053009	44.5	446	-3.56107e-05
45.8557	0.0053009	44.6	447	3.56122e-05
45.9557	0.00531921	44.7	448	0.000325527
46.0557	0.00530396	44.8	449	-0.000493376
46.1557	0.00530396	44.9	450	0.000239053
46.2557	0.00530396	45	451	-5.08642e-05
46.3557	0.00531616	45.1	452	0.000223789
46.4557	0.00530396	45.2	453	-0.000366197
46.5557	0.00530701	45.3	454	0.000239038
46.6557	0.00531616	45.4	455	9.15568e-05
46.7557	0.00530396	45.5	456	-0.000320426
46.8557	0.00531006	45.6	457	0.00028482
46.9557	0.00530396	45.7	458	-0.000223789
47.0557	0.0053009	45.8	459	3.55936e-05
47.1557	0.00531921	45.9	460	0.000350966
47.2557	0.00530701	46	461	-0.000447607
47.3557	0.00531921	46.1	462	0.000427255
47.4557	0.00532532	46.2	463	-7.12167e-05
47.5557	0.00531921	46.3	464	-0.000142409
47.6557	0.00529785	46.4	465	-0.000300092
47.7557	0.00531311	46.5	466	0.000508632
47.8557	0.00531006	46.6	467	-0.000305177
47.9557	0.0053009	46.7	468	-8.13821e-05
48.0557	0.00531616	46.8	469	0.000376388
48.1557	0.00530396	46.9	470	-0.000432326
48.2557	0.00531311	47	471	0.000361119
48.3557	0.0053009	47.1	472	-0.000371298
48.4557	0.00530396	47.2	473	0.000228893
48.5557	0.00531006	47.3	474	3.5592e-05
48.6557	0.00531921	47.4	475	0.000106818
48.7557	0.0053009	47.5	476	-0.00042217
48.8557	0.00531006	47.6	477	0.000411998
48.9557	0.00530396	47.7	478	-0.000279746
49.0557	0.00531311	47.8	479	0.00026957
49.1557	0.00531616	47.9	480	-7.12089e-05
49.2557	0.00531311	48	481	-6.10218e-05
49.3557	0.00531006	48.1	482	-1.01794e-05
49.4557	0.00530701	48.2	483	-3.0521e-05
49.5557	0.00530701	48.3	484	2.54282e-05
49.6557	0.00532532	48.4	485	0.000325522
49.7557	0.0053009	48.5	486	-0.000661217
49.8557	0.00531311	48.6	487	0.000569674
49.9557	0.00532227	48.7	488	-5.59601e-05
50.0557	0.00531616	48.8	489	-0.000178018
50.1557	0.00531616	48.9	490	0.000101728
50.2557	0.00531006	49	491	-0.000132238
50.3557	0.00531311	49.1	492	0.000127158
50.4557	0.00532532	49.2	493	0.000167844
50.5557	0.00532837	49.3	494	-7.62877e-05
50.6557	0.00532227	49.4	495	-0.00010682
50.7557	0.00532532	49.5	496	0.000137333
50.8557	0.00532837	49.6	497	3.10441e-09
50.9557	0.00531006	49.7	498	-0.000361126
51.0557	0.00531311	49.8	499	0.000279751
51.1557	0.00533142	49.9	500	0.000239049
51.2557	0.00531006	50	501	-0.000595084
51.3557	0.00531311	50.1	502	0.000366211
51.4557	0.00532837	50.2	503	0.000172936
51.5557	0.00531006	50.3	504	-0.000503541
51.6557	0.00531616	50.4	505	0.000376382
51.7557	0.00531921	50.5	506	-7.62846e-05
51.8557	0.00531616	50.6	507	-7.12213e-05
51.9557	0.00531311	50.7	508	-1.01561e-05
52.0557	0.00531921	50.8	509	0.000137325
52.1557	0.00532227	50.9	510	-2.54422e-05
52.2557	0.00532227	51	511	-1.52582e-05
52.3557	0.00532227	51.1	512	1.01685e-05
52.4557	0.00532837	51.2	513	0.000111905
52.5557	0.00531616	51.3	514	-0.000295009
52.6557	0.00533142	51.4	515	0.000442512
52.7557	0.00531311	51.5	516	-0.000554394
52.8557	0.00533142	51.6	517	0.000600171
52.9557	0.00531921	51.7	518	-0.000498442
53.0557	0.00532532	51.8	519	0.000315336
53.1557	0.00534363	51.9	520	0.000223805
53.2557	0.00533752	52	521	-0.000305183
53.3557	0.00531921	52.1	522	-0.000203444
53.4557	0.00533142	52.2	523	0.000417062
53.5557	0.00533142	52.3	524	-0.000203441
53.6557	0.00531311	52.4	525	-0.000294995
53.7557	0.00533752	52.5	526	0.000661203
53.8557	0.00532532	52.6	527	-0.000569657
53.9557	0.00532837	52.7	528	0.000279748
54.0557	0.00534363	52.8	529	0.000203454
54.1557	0.00533447	52.9	530	-0.000335692
54.2557	0.00533447	53	531	0.00015767
54.3557	0.00534058	53.1	532	8.13758e-05
54.4557	0.00532837	53.2	533	-0.000294995
54.5557	0.00531921	53.3	534	-5.08657e-06
54.6557	0.00532837	53.4	535	0.000233967
54.7557	0.00534058	53.5	536	8.64671e-05
54.8557	0.00532532	53.6	537	-0.000391641
54.9557	0.00534363	53.7	538	0.000554407
55.0557	0.00533447	53.8	539	-0.000432332
55.1557	0.00533752	53.9	540	0.000223784
55.2557	0.00533447	54	541	-0.000122062
55.3557	0.00532227	54.1	542	-0.000178033
55.4557	0.00532532	54.2	543	0.000188199
55.5557	0.00533752	54.3	544	0.000147495
55.6557	0.00533142	54.4	545	-0.00024414
55.7557	0.00532532	54.5	546	6.20882e-09
55.8557	0.00532227	54.6	547	-5.09433e-06
55.9557	0.00533447	54.7	548	0.00023906
56.0557	0.00533142	54.8	549	-0.000208548
56.1557	0.00534058	54.9	550	0.000244152
56.2557	0.00531616	55	551	-0.000564582
56.3557	0.00532532	55.1	552	0.000483203
56.4557	0.00534058	55.2	553	9.1549e-05
56.5557	0.00533752	55.3	554	-0.000203455
56.6557	0.00534973	55.4	555	0.000310267
56.7557	0.00533142	55.5	556	-0.000488292
56.8557	0.00533447	55.6	557	0.000310276
56.9557	0.00535278	55.7	558	0.000239038
57.0557	0.00533142	55.8	559	-0.000595089
57.1557	0.00534973	55.9	560	0.000645964
57.2557	0.00532837	56	561	-0.000676478
57.3557	0.00533752	56.1	562	0.000478105
57.4557	0.00534668	56.2	563	-1.01716e-05
57.5557	0.00534363	56.3	564	-0.000132232
57.6557	0.00533752	56.4	565	-4.57869e-05
57.7557	0.00534058	56.5	566	0.000116988
57.8557	0.00534363	56.6	567	3.10441e-09
57.9557	0.00533752	56.7	568	-0.000137336
58.0557	0.00534668	56.8	569	0.000249228
58.1557	0.00534973	56.9	570	-7.11996e-05
58.2557	0.00534363	57	571	-0.00011699
58.3557	0.00533447	57.1	572	-8.64624e-05
58.4557	0.00534363	57.2	573	0.000254312
58.5557	0.00534668	57.3	574	-8.13821e-05
58.6557	0.00533447	57.4	575	-0.000228871
58.7557	0.00535583	57.5	576	0.000544218
58.8557	0.00534668	57.6	577	-0.000457762
58.9557	0.00533142	57.7	578	-0.000101721
59.0557	0.00535583	57.8	579	0.000595096
59.1557	0.00534668	57.9	580	-0.000503546
59.2557	0.00534363	58	581	0.000132256
59.3557	0.00534363	58.1	582	5.08502e-06
59.4557	0.00535278	58.2	583	0.000157668
59.5557	0.00534363	58.3	584	-0.00027465
59.6557	0.00534058	58.4	585	8.13758e-05
59.7557	0.00534668	58.5	586	0.000116983
59.8557	0.00534363	58.6	587	-0.000137317
59.9557	0.00534058	58.7	588	-6.20882e-09
60.0557	0.00534058	58.8	589	2.54329e-05
60.1557	0.00536499	58.9	590	0.00043742
60.2557	0.00534668	59	591	-0.000620534
60.3557	0.00534973	59.1	592	0.000350966
60.4557	0.00534058	59.2	593	-0.000264497
60.5557	0.00534973	59.3	594	0.000284837
60.6557	0.00534363	59.4	595	-0.00024923
60.7557	0.00534058	59.5	596	4.57776e-05
60.8557	0.00534668	59.6	597	0.000127155
60.9557	0.00534668	59.7	598	-8.13758e-05
61.0557	0.00534668	59.8	599	2.03463e-05
61.1557	0.00535583	59.9	600	0.000167851