File: data/20200205/OCP_p27_1.txt
Time (s)	WE(1).Potential (V)	Corrected time (s)	Index	dWE(1).Potential/dt (V/s)	OCP value (V)
4.35227	-0.0199066	0	1	0	-0.0190332
4.45227	-0.0198883	0.1	2	0.000183098
4.55227	-0.0199036	0.2	3	-0.00032044
4.65227	-0.0198975	0.3	4	0.000350966
4.75227	-0.0199097	0.4	5	-0.0003459
4.85227	-0.0198853	0.5	6	0.000610383
4.95227	-0.0199036	0.6	7	-0.00066124
5.05227	-0.0198822	0.7	8	0.000686683
5.15227	-0.0199036	0.8	9	-0.000701932
5.25227	-0.0198761	0.9	10	0.000824016
5.35227	-0.0198792	1	11	-0.000447656
5.45227	-0.0198883	1.1	12	-4.0674e-05
5.55227	-0.0198914	1.2	13	4.07237e-05
5.65227	-0.0198853	1.3	14	0.000116962
5.75227	-0.0199005	1.4	15	-0.000361099
5.85227	-0.0198853	1.5	16	0.000478123
5.95227	-0.0198761	1.6	17	-6.10327e-05
6.05227	-0.0198944	1.7	18	-0.00039169
6.15227	-0.0198883	1.8	19	0.000356051
6.25227	-0.0198883	1.9	20	-0.000132229
6.35227	-0.01987	2	21	0.000356076
6.45227	-0.0198578	2.1	22	1.0139e-05
6.55227	-0.01987	2.2	23	-0.00030512
6.65227	-0.0198822	2.3	24	-4.07175e-05
6.75227	-0.0198761	2.4	25	0.000213639
6.85227	-0.019873	2.5	26	-5.59912e-05
6.95227	-0.0198853	2.6	27	-0.00023899
7.05227	-0.0198761	2.7	28	0.000320419
7.15227	-0.019873	2.8	29	-9.15863e-05
7.25227	-0.0198792	2.9	30	-0.000116962
7.35227	-0.019873	3	31	0.000193262
7.45227	-0.0198761	3.1	32	-0.000147466
7.55227	-0.0198578	3.2	33	0.00039159
7.65227	-0.019873	3.3	34	-0.000503505
7.75227	-0.0198669	3.4	35	0.000350966
7.85227	-0.0198761	3.5	36	-0.000289921
7.95227	-0.0198792	3.6	37	7.11593e-05
8.05227	-0.0198669	3.7	38	0.000228907
8.15227	-0.0198669	3.8	39	-0.000152594
8.25227	-0.0198792	3.9	40	-0.000183123
8.35227	-0.0198639	4	41	0.00042215
8.45227	-0.0198639	4.1	42	-0.000218724
8.55227	-0.0198669	4.2	43	-5.07882e-06
8.65227	-0.0198608	4.3	44	0.000147509
8.75227	-0.0198578	4.4	45	-2.54686e-05
8.85227	-0.0198425	4.5	46	0.000264521
8.95227	-0.0198578	4.6	47	-0.000447588
9.05227	-0.0198578	4.7	48	0.000228888
9.15227	-0.0198639	4.8	49	-0.000162764
9.25227	-0.0198669	4.9	50	1.52551e-05
9.35227	-0.0198517	5	51	0.000295
9.45227	-0.0198608	5.1	52	-0.000356026
9.55227	-0.0198547	5.2	53	0.000269562
9.65227	-0.01987	5.3	54	-0.000381445
9.75227	-0.0198547	5.4	55	0.000478123
9.85227	-0.0198456	5.5	56	-6.10327e-05
9.95227	-0.0198425	5.6	57	-3.72529e-08
10.0523	-0.0198547	5.7	58	-0.00022882
10.1523	-0.0198364	5.8	59	0.000488256
10.2523	-0.0198486	5.9	60	-0.000478123
10.3523	-0.0198303	6	61	0.000539162
10.4523	-0.0198425	6.1	62	-0.000478154
10.5523	-0.0198486	6.2	63	9.15801e-05
10.6523	-0.0198425	6.3	64	0.000142399
10.7523	-0.0198517	6.4	65	-0.000259374
10.8523	-0.0198456	6.5	66	0.000239052
10.9523	-0.0198486	6.6	67	-0.000157723
11.0523	-0.0198425	6.7	68	0.000167862
11.1523	-0.0198364	6.8	69	3.05412e-05
11.2523	-0.0198395	6.9	70	-0.000106804
11.3523	-0.0198395	7	71	5.59601e-05
11.4523	-0.0198334	7.1	72	0.000101701
11.5523	-0.0198334	7.2	73	-7.12152e-05
11.6523	-0.0198303	7.3	74	7.63064e-05
11.7523	-0.0198364	7.4	75	-0.000147534
11.8523	-0.0198181	7.5	76	0.000417071
11.9523	-0.0198456	7.6	77	-0.00073749
12.0523	-0.0198364	7.7	78	0.000549282
12.1523	-0.0198303	7.8	79	-8.64392e-05
12.2523	-0.0198456	7.9	80	-0.000320456
12.3523	-0.0198181	8	81	0.00070187
12.4523	-0.0198242	8.1	82	-0.000483152
12.5523	-0.0198364	8.2	83	-6.10514e-05
12.6523	-0.0198334	8.3	84	0.000178007
12.7523	-0.0198303	8.4	85	-2.03277e-05
12.8523	-0.0198273	8.5	86	3.04729e-05
12.9523	-0.0198242	8.6	87	3.05847e-05
13.0523	-0.0198395	8.7	88	-0.000305182
13.1523	-0.0198151	8.8	89	0.00063579
13.2523	-0.0198273	8.9	90	-0.000559527
13.3523	-0.0198181	9	91	0.000391665
13.4523	-0.0198242	9.1	92	-0.000259386
13.5523	-0.0198242	9.2	93	0.000101732
13.6523	-0.0198242	9.3	94	-2.03277e-05
13.7523	-0.019812	9.4	95	0.000223778
13.8523	-0.0198212	9.5	96	-0.00031023
13.9523	-0.0198059	9.6	97	0.000427229
14.0523	-0.0198212	9.7	98	-0.00048828
14.1523	-0.0198059	9.8	99	0.000508627
14.2523	-0.0198212	9.9	100	-0.000508627
14.3523	-0.019812	10	101	0.000396719
14.4523	-0.0198059	10.1	102	-4.57466e-05
14.5523	-0.0198181	10.2	103	-0.000264521
14.6523	-0.019809	10.3	104	0.000330638
14.7523	-0.0198181	10.4	105	-0.000315383
14.8523	-0.019809	10.5	106	0.000305213
14.9523	-0.0198151	10.6	107	-0.000249235
15.0523	-0.019809	10.7	108	0.000213621
15.1523	-0.0198059	10.8	109	-3.56014e-05
15.2523	-0.0198059	10.9	110	-1.52551e-05
15.3523	-0.0198029	11	111	6.60991e-05
15.4523	-0.0198029	11.1	112	-3.56138e-05
15.5523	-0.019809	11.2	113	-0.000101701
15.6523	-0.019812	11.3	114	1.52365e-05
15.7523	-0.0198029	11.4	115	0.000183123
15.8523	-0.0197998	11.5	116	-6.10327e-05
15.9523	-0.0197998	11.6	117	-5.10986e-06
16.0523	-0.0197968	11.7	118	6.60991e-05
16.1523	-0.0197998	11.8	119	-9.14994e-05
16.2523	-0.0197968	11.9	120	0.000101669
16.3523	-0.0197906	12	121	6.61674e-05
16.4523	-0.0197937	12.1	122	-0.00011698
16.5523	-0.0198059	12.2	123	-0.000167856
16.6523	-0.0198029	12.3	124	0.000188177
16.7523	-0.0198059	12.4	125	-0.000132236
16.8523	-0.0197876	12.5	126	0.000381445
16.9523	-0.0197998	12.6	127	-0.000447569
17.0523	-0.0197968	12.7	128	0.000259355
17.1523	-0.0197906	12.8	129	3.56511e-05
17.2523	-0.0197937	12.9	130	-0.00011698
17.3523	-0.0198059	13	131	-0.000167856
17.4523	-0.0197815	13.1	132	0.00057983
17.5523	-0.0197937	13.2	133	-0.00054927
17.6523	-0.0197815	13.3	134	0.000447557
17.7523	-0.0197998	13.4	135	-0.000518753
17.8523	-0.0197876	13.5	136	0.000478042
17.9523	-0.0197968	13.6	137	-0.000371281
18.0523	-0.0197876	13.7	138	0.000315352
18.1523	-0.0197784	13.8	139	3.0535e-05
18.2523	-0.0197876	13.9	140	-0.000244174
18.3523	-0.0197815	14	141	0.000249235
18.4523	-0.0197815	14.1	142	-0.000101713
18.5523	-0.0197693	14.2	143	0.000244168
18.6523	-0.0197784	14.3	144	-0.000310286
18.7523	-0.0197815	14.4	145	9.15491e-05
18.8523	-0.0197815	14.5	146	5.10986e-06
18.9523	-0.0197784	14.6	147	4.58087e-05
19.0523	-0.0197815	14.7	148	-9.15863e-05
19.1523	-0.0197723	14.8	149	0.000213639
19.2523	-0.0197845	14.9	150	-0.000340777
19.3523	-0.0197662	15	151	0.000508583
19.4523	-0.0197784	15.1	152	-0.000478042
19.5523	-0.0197784	15.2	153	0.000203445
19.6523	-0.0197754	15.3	154	1.52551e-05
19.7523	-0.0197723	15.4	155	2.03277e-05
19.8523	-0.0197723	15.5	156	-2.54438e-05
19.9523	-0.0197845	15.6	157	-0.000213608
20.0523	-0.0197784	15.7	158	0.000254301
20.1523	-0.0197723	15.8	159	-1.24176e-08
20.2523	-0.0197723	15.9	160	-5.08689e-05
20.3523	-0.0197723	16	161	2.03277e-05
20.4523	-0.0197693	16.1	162	5.59663e-05
20.5523	-0.0197693	16.2	163	-3.56262e-05
20.6523	-0.0197693	16.3	164	1.01701e-05
20.7523	-0.0197571	16.4	165	0.00022376
20.8523	-0.0197601	16.5	166	-0.000198341
20.9523	-0.0197601	16.6	167	7.62878e-05
21.0523	-0.0197693	16.7	168	-0.000178007
21.1523	-0.0197662	16.8	169	0.000162721
21.2523	-0.0197723	16.9	170	-0.000177995
21.3523	-0.0197693	17	171	0.000137333
21.4523	-0.0197693	17.1	172	-5.59725e-05
21.5523	-0.0197601	17.2	173	0.000178007
21.6523	-0.019754	17.3	174	5.10986e-06
21.7523	-0.0197662	17.4	175	-0.000264527
21.8523	-0.0197479	17.5	176	0.000498519
21.9523	-0.019751	17.6	177	-0.000310298
22.0523	-0.0197632	17.7	178	-0.000127101
22.1523	-0.0197632	17.8	179	0.000132236
22.2523	-0.0197632	17.9	180	-4.0674e-05
22.3523	-0.0197449	18	181	0.000335686
22.4523	-0.0197571	18.1	182	-0.000437436
22.5523	-0.0197754	18.2	183	-0.000132236
22.6523	-0.019754	18.3	184	0.000564581
22.7523	-0.0197388	18.4	185	-3.0535e-05
22.8523	-0.019751	18.5	186	-0.000330632
22.9523	-0.0197693	18.6	187	-0.000142362
23.0523	-0.019754	18.7	188	0.000452642
23.1523	-0.0197571	18.8	189	-0.000295037
23.2523	-0.0197479	18.9	190	0.000254357
23.3523	-0.019754	19	191	-0.000228888
23.4523	-0.0197449	19.1	192	0.00026955
23.5523	-0.019751	19.2	193	-0.000239052
23.6523	-0.0197449	19.3	194	0.000213652
23.7523	-0.0197327	19.4	195	0.000132248
23.8523	-0.0197388	19.5	196	-0.000233967
23.9523	-0.019751	19.6	197	-0.000111933
24.0523	-0.0197388	19.7	198	0.000345918
24.1523	-0.0197388	19.8	199	-0.000183142
24.2523	-0.0197479	19.9	200	-0.00012715
24.3523	-0.0197357	20	201	0.000330601
24.4523	-0.0197266	20.1	202	-5.07261e-06
24.5523	-0.0197327	20.2	203	-0.000178007
24.6523	-0.0197357	20.3	204	4.57528e-05
24.7523	-0.0197327	20.4	205	7.12649e-05
24.8523	-0.0197296	20.5	206	1.01452e-05
24.9523	-0.0197388	20.6	207	-0.000193262
25.0523	-0.0197357	20.7	208	0.000172891
25.1523	-0.0197296	20.8	209	4.58211e-05
25.2523	-0.0197327	20.9	210	-0.00011698
25.3523	-0.0197388	21	211	-5.59477e-05
25.4523	-0.0197357	21.1	212	0.000116949
25.5523	-0.0197388	21.2	213	-0.000111846
25.6523	-0.0197418	21.3	214	-1.02383e-05
25.7523	-0.0197266	21.4	215	0.000305182
25.8523	-0.0197296	21.5	216	-0.000244137
25.9523	-0.0197357	21.6	217	-2.54438e-05
26.0523	-0.0197327	21.7	218	0.000117036
26.1523	-0.0197296	21.8	219	-2.48353e-08
26.2523	-0.0197235	21.9	220	8.64827e-05
26.3523	-0.0197296	22	221	-0.000172965
26.4523	-0.0197296	22.1	222	9.15677e-05
26.5523	-0.0197205	22.2	223	0.000147491
26.6523	-0.0197235	22.3	224	-0.000162721
26.7523	-0.0197418	22.4	225	-0.000269637
26.8523	-0.0197296	22.5	226	0.000427273
26.9523	-0.0197205	22.6	227	-3.562e-05
27.0523	-0.0197266	22.7	228	-0.000178007
27.1523	-0.0197388	22.8	229	-0.000122065
27.2523	-0.0197235	22.9	230	0.000401792
27.3523	-0.0197235	23	231	-0.000218712
27.4523	-0.0197205	23.1	232	0.000106786
27.5523	-0.0197266	23.2	233	-0.000147478
27.6523	-0.0197083	23.3	234	0.000417078
27.7523	-0.0197144	23.4	235	-0.0003459
27.8523	-0.0197083	23.5	236	0.000244168
27.9523	-0.0197144	23.6	237	-0.000203482
28.0523	-0.0197113	23.7	238	0.000147497
28.1523	-0.0197174	23.8	239	-0.000167818
28.2523	-0.0197144	23.9	240	0.000137314
28.3523	-0.0197052	24	241	0.000111895
28.4523	-0.0197083	24.1	242	-0.000152551
28.5523	-0.0197174	24.2	243	-0.00010175
28.6523	-0.0197174	24.3	244	9.66652e-05
28.7523	-0.0197205	24.4	245	-8.64827e-05
28.8523	-0.0197174	24.5	246	9.1605e-05
28.9523	-0.0197113	24.6	247	6.60743e-05
29.0523	-0.0197144	24.7	248	-0.000116968
29.1523	-0.0196991	24.8	249	0.000335686
29.2523	-0.0197021	24.9	250	-0.000244119
29.3523	-0.0197113	25	251	-8.14101e-05
29.4523	-0.0196991	25.1	252	0.00032045
29.5523	-0.0197113	25.2	253	-0.000396756
29.6523	-0.0197083	25.3	254	0.000239077
29.7523	-0.019693	25.4	255	0.000203426
29.8523	-0.019693	25.5	256	-0.000167849
29.9523	-0.0197021	25.6	257	-0.00011698
30.0523	-0.0196991	25.7	258	0.000162764
30.1523	-0.0196777	25.8	259	0.000325535
30.2523	-0.019693	25.9	260	-0.000518822
30.3523	-0.0197083	26	261	-3.05226e-05
30.4523	-0.019693	26.1	262	0.000406895
30.5523	-0.0196991	26.2	263	-0.000340796
30.6523	-0.0197144	26.3	264	-0.000157661
30.7523	-0.019696	26.4	265	0.000493347
30.8523	-0.019693	26.5	266	-0.000208517
30.9523	-0.019693	26.6	267	2.54065e-05
31.0523	-0.0196869	26.7	268	0.000122078
31.1523	-0.0196838	26.8	269	-1.52551e-05
31.2523	-0.019693	26.9	270	-0.000183092
31.3523	-0.0196808	27	271	0.000340728
31.4523	-0.0197021	27.1	272	-0.000564531
31.5523	-0.0196838	27.2	273	0.000625595
31.6523	-0.0196869	27.3	274	-0.000340753
31.7523	-0.0196716	27.4	275	0.000376391
31.8523	-0.0196808	27.5	276	-0.000356064
31.9523	-0.019693	27.6	277	-6.60991e-05
32.0523	-0.0196838	27.7	278	0.000279707
32.1523	-0.0196686	27.8	279	0.00013226
32.2523	-0.019693	27.9	280	-0.000595085
32.3523	-0.0196899	28	281	0.000391603
32.4523	-0.0196716	28.1	282	0.000218774
32.5523	-0.0196899	28.2	283	-0.00053918
32.6523	-0.0196838	28.3	284	0.000386592
32.7523	-0.0196777	28.4	285	-2.03525e-05
32.8523	-0.0196869	28.5	286	-0.000218718
32.9523	-0.0196777	28.6	287	0.000295018
33.0523	-0.0196838	28.7	288	-0.000249253
33.1523	-0.0196808	28.8	289	0.000157667
33.2523	-0.0196747	28.9	290	5.59477e-05
33.3523	-0.0196655	29	291	0.000106817
33.4523	-0.0196716	29.1	292	-0.000198347
33.5523	-0.0196808	29.2	293	-6.6155e-05
33.6523	-0.0196686	29.3	294	0.00031028
33.7523	-0.0196747	29.4	295	-0.000284848
33.8523	-0.0196625	29.5	296	0.000335736
33.9523	-0.0196716	29.6	297	-0.000330632
34.0523	-0.0196869	29.7	298	-0.000132217
34.1523	-0.0196655	29.8	299	0.000539118
34.2523	-0.0196686	29.9	300	-0.000356026
34.3523	-0.0196747	30	301	-5.10365e-06
34.4523	-0.0196686	30.1	302	0.000172965
34.5523	-0.0196686	30.2	303	-9.15677e-05
34.6523	-0.0196625	30.3	304	0.000132254
34.7523	-0.0196564	30.4	305	4.06802e-05
34.8523	-0.0196655	30.5	306	-0.000218724
34.9523	-0.0196655	30.6	307	0.00012715
35.0523	-0.0196625	30.7	308	2.54438e-05
35.1523	-0.0196594	30.8	309	2.03029e-05
35.2523	-0.0196716	30.9	310	-0.00024916
35.3523	-0.0196594	31	311	0.000376348
35.4523	-0.0196625	31.1	312	-0.000239009
35.5523	-0.0196594	31.2	313	0.000132186
35.6523	-0.0196533	31.3	314	6.61674e-05
35.7523	-0.0196472	31.4	315	5.08565e-05
35.8523	-0.0196564	31.5	316	-0.000218718
35.9523	-0.0196503	31.6	317	0.00023904
36.0523	-0.019635	31.7	318	0.000178013
36.1523	-0.0196503	31.8	319	-0.000437436
36.2523	-0.0196411	31.9	320	0.000396756
36.3523	-0.0196472	32	321	-0.000269575
36.4523	-0.0196411	32.1	322	0.000213621
36.5523	-0.0196442	32.2	323	-0.000147509
36.6523	-0.0196503	32.3	324	-5.59353e-05
36.7523	-0.0196472	32.4	325	0.000116987
36.8523	-0.0196594	32.5	326	-0.000279788
36.9523	-0.0196411	32.6	327	0.000488349
37.0523	-0.019635	32.7	328	-0.000142461
37.1523	-0.0196442	32.8	329	-0.000178013
37.2523	-0.0196289	32.9	330	0.000406914
37.3523	-0.0196533	33	331	-0.000656111
37.4523	-0.0196472	33.1	332	0.000447588
37.5523	-0.0196533	33.2	333	-0.000264514
37.6523	-0.0196381	33.3	334	0.000371312
37.7523	-0.0196442	33.4	335	-0.000310274
37.8523	-0.0196411	33.5	336	0.000178069
37.9523	-0.0196381	33.6	337	-2.48353e-08
38.0523	-0.0196381	33.7	338	-2.54251e-05
38.1523	-0.0196503	33.8	339	-0.000213646
38.2523	-0.0196411	33.9	340	0.000310292
38.3523	-0.0196259	34	341	0.000132248
38.4523	-0.0196472	34.1	342	-0.000539137
38.5523	-0.0196442	34.2	343	0.000356001
38.6523	-0.0196228	34.3	344	0.000284873
38.7523	-0.019635	34.4	345	-0.000462886
38.8523	-0.019635	34.5	346	0.000213615
38.9523	-0.0196381	34.6	347	-9.66341e-05
39.0523	-0.0196411	34.7	348	-2.03277e-05
39.1523	-0.0196259	34.8	349	0.000305188
39.2523	-0.0196228	34.9	350	-0.000132248
39.3523	-0.0196289	35	351	-9.66465e-05
39.4523	-0.0196381	35.1	352	-8.64392e-05
39.5523	-0.0196228	35.2	353	0.000366196
39.6523	-0.019632	35.3	354	-0.000376373
39.7523	-0.0196198	35.4	355	0.00038142
39.8523	-0.0196411	35.5	356	-0.000564531
39.9523	-0.019635	35.6	357	0.000401779
40.0523	-0.019632	35.7	358	-8.64392e-05
40.1523	-0.0196198	35.8	359	0.00020848
40.2523	-0.0196167	35.9	360	-7.62568e-05
40.3523	-0.0196289	36	361	-0.000218755
40.4523	-0.0196167	36.1	362	0.000376441
40.5523	-0.0196198	36.2	363	-0.00023912
40.6523	-0.0196228	36.3	364	2.03711e-05
40.7523	-0.0196228	36.4	365	2.54251e-05
40.8523	-0.0196167	36.5	366	0.000101738
40.9523	-0.0196075	36.6	367	9.66093e-05
41.0523	-0.0196136	36.7	368	-0.000198359
41.1523	-0.0196228	36.8	369	-6.60929e-05
41.2523	-0.0196167	36.9	370	0.000198359
41.3523	-0.0196228	37	371	-0.000213652
41.4523	-0.0196075	37.1	372	0.000371312
41.5523	-0.0196228	37.2	373	-0.00047811
41.6523	-0.0196106	37.3	374	0.000452698
41.7523	-0.0196167	37.4	375	-0.000305176
41.8523	-0.0196075	37.5	376	0.00027972
41.9523	-0.0196075	37.6	377	-0.000127144
42.0523	-0.0196075	37.7	378	3.05164e-05
42.1523	-0.0196136	37.8	379	-0.000111908
42.2523	-0.0196014	37.9	380	0.000295043
42.3523	-0.0196075	38	381	-0.000274703
42.4523	-0.0196045	38.1	382	0.000167843
42.5523	-0.0195953	38.2	383	0.000111926
42.6523	-0.0196045	38.3	384	-0.000264521
42.7523	-0.0196075	38.4	385	8.13977e-05
42.8523	-0.0196136	38.5	386	-0.000106829
42.9523	-0.0196014	38.6	387	0.000284873
43.0523	-0.0195953	38.7	388	-5.08875e-05
43.1523	-0.0196167	38.8	389	-0.000422144
43.2523	-0.0196045	38.9	390	0.000493322
43.3523	-0.0196014	39	391	-0.000157642
43.4523	-0.0195984	39.1	392	6.09893e-05
43.5523	-0.0195923	39.2	393	8.65137e-05
43.6523	-0.0196014	39.3	394	-0.000228888
43.7523	-0.0196014	39.4	395	0.000127138
43.8523	-0.0195984	39.5	396	2.54065e-05
43.9523	-0.0195984	39.6	397	-3.55703e-05
44.0523	-0.0195953	39.7	398	6.6155e-05
44.1523	-0.0196014	39.8	399	-0.000147515
44.2523	-0.0195892	39.9	400	0.000305133
44.3523	-0.0196075	40	401	-0.000498432
44.4523	-0.0196045	40.1	402	0.000310236
44.5523	-0.0195984	40.2	403	1.52613e-05
44.6523	-0.0195923	40.3	404	5.08875e-05
44.7523	-0.0196014	40.4	405	-0.000218712
44.8523	-0.0195984	40.5	406	0.000183067
44.9523	-0.0195953	40.6	407	-1.0108e-05
45.0523	-0.0195923	40.7	408	3.04915e-05
45.1523	-0.0195923	40.8	409	-2.54251e-05
45.2523	-0.0196014	40.9	410	-0.000157667
45.3523	-0.0195862	41	411	0.000386536
45.4523	-0.0196014	41.1	412	-0.000488287
45.5523	-0.0195892	41.2	413	0.000452642
45.6523	-0.0195953	41.3	414	-0.000305133
45.7523	-0.0195892	41.4	415	0.00022376
45.8523	-0.0195953	41.5	416	-0.000203413
45.9523	-0.0195831	41.6	417	0.000315321
46.0523	-0.0195892	41.7	418	-0.000274641
46.1523	-0.0195801	41.8	419	0.000279757
46.2523	-0.0195862	41.9	420	-0.000239058
46.3523	-0.019577	42	421	0.00026955
46.4523	-0.0195984	42.1	422	-0.000518797
46.5523	-0.0195892	42.2	423	0.0004476
46.6523	-0.019577	42.3	424	4.57714e-05
46.7523	-0.0195801	42.4	425	-0.000167831
46.8523	-0.0195923	42.5	426	-0.000147509
46.9523	-0.0195862	42.6	427	0.000244156
47.0523	-0.0195801	42.7	428	-1.24176e-08
47.1523	-0.0195923	42.8	429	-0.000274653
47.2523	-0.019574	42.9	430	0.000498438
47.3523	-0.019577	43	431	-0.000310255
47.4523	-0.019577	43.1	432	9.66341e-05
47.5523	-0.0195831	43.2	433	-0.000122078
47.6523	-0.0195831	43.3	434	7.12276e-05
47.7523	-0.0195801	43.4	435	3.56386e-05
47.8523	-0.019574	43.5	436	7.62506e-05
47.9523	-0.0195831	43.6	437	-0.000228876
48.0523	-0.019574	43.7	438	0.000295006
48.1523	-0.019577	43.8	439	-0.000193281
48.2523	-0.0195709	43.9	440	0.000178026
48.3523	-0.0195587	44	441	0.000142368
48.4523	-0.0195709	44.1	442	-0.000345831
48.5523	-0.0195679	44.2	443	0.000239009
48.6523	-0.019577	44.3	444	-0.000244094
48.7523	-0.019574	44.4	445	0.000172897
48.8523	-0.0195709	44.5	446	-1.01514e-05
48.9523	-0.0195679	44.6	447	3.04729e-05
49.0523	-0.0195587	44.7	448	0.000142443
49.1523	-0.0195618	44.8	449	-0.000152594
49.2523	-0.0195679	44.9	450	-4.57901e-05
49.3523	-0.0195709	45	451	5.12849e-06
49.4523	-0.0195648	45.1	452	0.000127132
49.5523	-0.0195618	45.2	453	-2.54251e-05
49.6523	-0.0195648	45.3	454	-7.11842e-05
49.7523	-0.0195618	45.4	455	0.000101713
49.8523	-0.0195557	45.5	456	6.61364e-05
49.9523	-0.0195709	45.6	457	-0.000340802
50.0523	-0.0195648	45.7	458	0.000310267
50.1523	-0.0195587	45.8	459	-1.01887e-05
50.2523	-0.0195526	45.9	460	6.10389e-05
50.3523	-0.0195526	46	461	-5.08503e-05
50.4523	-0.0195679	46.1	462	-0.000259392
50.5523	-0.0195587	46.2	463	0.000345862
50.6523	-0.0195557	46.3	464	-0.000101719
50.7523	-0.019574	46.4	465	-0.000340833
50.8523	-0.0195557	46.5	466	0.000559527
50.9523	-0.0195587	46.6	467	-0.000330663
51.0523	-0.0195435	46.7	468	0.000376391
51.1523	-0.0195587	46.8	469	-0.000467953
51.2523	-0.0195435	46.9	470	0.000508614
51.3523	-0.0195648	47	471	-0.000620497
51.4523	-0.0195496	47.1	472	0.000579842
51.5523	-0.0195465	47.2	473	-0.000193281
51.6523	-0.0195557	47.3	474	-0.000152576
51.7523	-0.0195587	47.4	475	6.09831e-05
51.8523	-0.0195435	47.5	476	0.000284836
51.9523	-0.0195465	47.6	477	-0.000244137
52.0523	-0.0195404	47.7	478	0.000198372
52.1523	-0.0195343	47.8	479	3.05102e-05
52.2523	-0.0195404	47.9	480	-0.000162746
52.3523	-0.0195435	48	481	3.55579e-05
52.4523	-0.0195435	48.1	482	1.52613e-05
52.5523	-0.0195465	48.2	483	-6.61178e-05
52.6523	-0.0195465	48.3	484	3.56014e-05
52.7523	-0.0195404	48.4	485	0.000101738
52.8523	-0.01953125	48.5	486	9.66093e-05
52.9523	-0.01953125	48.6	487	-8.64517e-05
53.0523	-0.0195404	48.7	488	-0.000137321
53.1523	-0.0195374	48.8	489	0.000162721
53.2523	-0.0195251	48.9	490	0.000157729
53.3523	-0.0195435	49	491	-0.000468002
53.4523	-0.0195404	49.1	492	0.000310298
53.5523	-0.01953125	49.2	493	7.11717e-05
53.6523	-0.019519	49.3	494	0.000127194
53.7523	-0.0195282	49.4	495	-0.000279776
53.8523	-0.0195404	49.5	496	-7.62692e-05
53.9523	-0.0195251	49.6	497	0.000391615
54.0523	-0.0195251	49.7	498	-0.000218712
54.1523	-0.0195282	49.8	499	-5.12228e-06
54.2523	-0.0195251	49.9	500	9.15863e-05
54.3523	-0.0195251	50	501	-4.58025e-05
54.4523	-0.019516	50.1	502	0.000178007
54.5523	-0.0195404	50.2	503	-0.00055438
54.6523	-0.0195221	50.3	504	0.000651001
54.7523	-0.019516	50.4	505	-0.000183061
54.8523	-0.019519	50.5	506	-6.61178e-05
54.9523	-0.01953125	50.6	507	-0.000167856
55.0523	-0.0195221	50.7	508	0.000300085
55.1523	-0.0195251	50.8	509	-0.000203413
55.2523	-0.0195099	50.9	510	0.000345831
55.3523	-0.0195099	51	511	-0.000188196
55.4523	-0.019516	51.1	512	-6.10514e-05
55.5523	-0.0195282	51.2	513	-0.000152594
55.6523	-0.019516	51.3	514	0.000345875
55.7523	-0.0195282	51.4	515	-0.000406926
55.8523	-0.0195129	51.5	516	0.000462843
55.9523	-0.0195221	51.6	517	-0.000386561
56.0523	-0.019516	51.7	518	0.0002696
56.1523	-0.019516	51.8	519	-0.000101738
56.2523	-0.0195068	51.9	520	0.000188183
56.3523	-0.0195129	52	521	-0.0002187
56.4523	-0.0195129	52.1	522	0.000101701
56.5523	-0.0195099	52.2	523	3.562e-05
56.6523	-0.019519	52.3	524	-0.000203463
56.7523	-0.0195129	52.4	525	0.00022887
56.8523	-0.019519	52.5	526	-0.00021359
56.9523	-0.0195129	52.6	527	0.000203413
57.0523	-0.0195129	52.7	528	-9.15553e-05
57.1523	-0.0194916	52.8	529	0.00041198
57.2523	-0.0195038	52.9	530	-0.000472976
57.3523	-0.0195038	53	531	0.000213621
57.4523	-0.0194946	53.1	532	0.000127163
57.5523	-0.0194916	53.2	533	-5.08999e-05
57.6523	-0.0195038	53.3	534	-0.00022882
57.7523	-0.0194946	53.4	535	0.000320419
57.8523	-0.0195007	53.5	536	-0.000259423
57.9523	-0.0194977	53.6	537	0.000157667
58.0523	-0.0195007	53.7	538	-0.000111889
58.1523	-0.0195068	53.8	539	-6.61364e-05
58.2523	-0.0194946	53.9	540	0.000284873
58.3523	-0.0194977	54	541	-0.000218774
58.4523	-0.0195068	54.1	542	-9.15367e-05
58.5523	-0.0194946	54.2	543	0.000320468
58.6523	-0.0194977	54.3	544	-0.000228944
58.7523	-0.0195038	54.4	545	-3.55579e-05
58.8523	-0.0194824	54.5	546	0.000452642
58.9523	-0.0194916	54.6	547	-0.000437412
59.0523	-0.0194855	54.7	548	0.00028994
59.1523	-0.0194977	54.8	549	-0.000325553
59.2523	-0.0194977	54.9	550	0.000162752
59.3523	-0.0194824	55	551	0.00023904
59.4523	-0.0194916	55.1	552	-0.000345869
59.5523	-0.0194794	55.2	553	0.000381507
59.6523	-0.0194977	55.3	554	-0.000508689
59.7523	-0.0194763	55.4	555	0.000645972
59.8523	-0.0194855	55.5	556	-0.000478086
59.9523	-0.0194855	55.6	557	0.000178007
60.0523	-0.0194794	55.7	558	8.13915e-05
60.1523	-0.0194855	55.8	559	-0.000183135
60.2523	-0.0194916	55.9	560	-2.03401e-05
60.3523	-0.0194733	56	561	0.000386605
60.4523	-0.0194611	56.1	562	-1.02073e-05
60.5523	-0.0194763	56.2	563	-0.000361099
60.6523	-0.0194794	56.3	564	0.000162783
60.7523	-0.0194702	56.4	565	0.000152545
60.8523	-0.0194794	56.5	566	-0.000284805
60.9523	-0.0194733	56.6	567	0.000249216
61.0523	-0.0194733	56.7	568	-0.000101701
61.1523	-0.0194641	56.8	569	0.000188196
61.2523	-0.0194733	56.9	570	-0.000274666
61.3523	-0.0194611	57	571	0.000361118
61.4523	-0.0194733	57.1	572	-0.000396675
61.5523	-0.0194733	57.2	573	0.000183098
61.6523	-0.019458	57.3	574	0.000239071
61.7523	-0.019458	57.4	575	-0.000178007
61.8523	-0.019458	57.5	576	5.08751e-05
61.9523	-0.0194672	57.6	577	-0.000167874
62.0523	-0.0194519	57.7	578	0.000386549
62.1523	-0.0194672	57.8	579	-0.000488299
62.2523	-0.0194519	57.9	580	0.000508614
62.3523	-0.0194733	58	581	-0.000620497
62.4523	-0.0194641	58.1	582	0.000467934
62.5523	-0.0194519	58.2	583	4.57342e-05
62.6523	-0.0194641	58.3	584	-0.000335661
62.7523	-0.0194794	58.4	585	-9.66652e-05
62.8523	-0.0194794	58.5	586	0.000137327
62.9523	-0.019458	58.6	587	0.000340784
63.0523	-0.0194672	58.7	588	-0.00041709
63.1523	-0.019455	58.8	589	0.000401829
63.2523	-0.0194672	58.9	590	-0.000396756
63.3523	-0.0194489	59	591	0.000518822
63.4523	-0.019458	59.1	592	-0.000422175
63.5523	-0.0194519	59.2	593	0.000279732
63.6523	-0.019455	59.3	594	-0.000157661
63.7523	-0.0194458	59.4	595	0.000223778
63.8523	-0.0194427	59.5	596	-6.09831e-05
63.9523	-0.0194519	59.6	597	-0.000172978
64.0523	-0.0194519	59.7	598	0.00011698
64.1523	-0.0194641	59.8	599	-0.000254301
64.2523	-0.0194427	59.9	600	0.000534046
64.3523	-0.0194489	60	601	-0.000401798
64.4523	-0.0194427	60.1	602	0.000254307
64.5523	-0.0194458	60.2	603	-0.000147509
64.6523	-0.0194366	60.3	604	0.000223809
64.7523	-0.019455	60.4	605	-0.000452685
64.8523	-0.0194427	60.5	606	0.000467953
64.9523	-0.019455	60.6	607	-0.000427254
65.0523	-0.0194427	60.7	608	0.000406926
65.1523	-0.0194427	60.8	609	-0.000183098
65.2523	-0.0194275	60.9	610	0.00032045
65.3523	-0.0194427	61	611	-0.000457752
65.4523	-0.0194366	61.1	612	0.000340753
65.5523	-0.0194397	61.2	613	-0.000178007
65.6523	-0.0194458	61.3	614	-5.59663e-05
65.7523	-0.0194336	61.4	615	0.000284873
65.8523	-0.0194366	61.5	616	-0.000218774
65.9523	-0.0194366	61.6	617	7.63002e-05
66.0523	-0.0194397	61.7	618	-6.61178e-05
66.1523	-0.0194489	61.8	619	-0.000132236
66.2523	-0.0194214	61.9	620	0.000600132
66.3523	-0.0194397	62	621	-0.000686621
66.4523	-0.0194275	62.1	622	0.000528986
66.5523	-0.0194397	62.2	623	-0.000427254
66.6523	-0.0194427	62.3	624	0.000127182
66.7523	-0.0194244	62.4	625	0.000330595
66.8523	-0.0194458	62.5	626	-0.000615443
66.9523	-0.0194366	62.6	627	0.000478117
67.0523	-0.0194183	62.7	628	0.000157679
67.1523	-0.0194122	62.8	629	-7.12214e-05
67.2523	-0.0194214	62.9	630	-0.000178032
67.3523	-0.0194366	63	631	-0.000152594
67.4523	-0.0194214	63.1	632	0.000427229
67.5523	-0.0194305	63.2	633	-0.000396731
67.6523	-0.0194214	63.3	634	0.000325529
67.7523	-0.0194275	63.4	635	-0.00024921
67.8523	-0.0194214	63.5	636	0.00021359
67.9523	-0.0194275	63.6	637	-0.000203413
68.0523	-0.0194366	63.7	638	-7.63313e-05
68.1523	-0.0194336	63.8	639	0.000142443
68.2523	-0.0194183	63.9	640	0.000213596
68.3523	-0.0194244	64	641	-0.000279757
68.4523	-0.0194122	64.1	642	0.0003459
68.5523	-0.0194244	64.2	643	-0.000386568
68.6523	-0.0194183	64.3	644	0.000295018
68.7523	-0.0194183	64.4	645	-0.00011192
68.8523	-0.0194244	64.5	646	-9.15677e-05
68.9523	-0.0194153	64.6	647	0.000239058
69.0523	-0.0194275	64.7	648	-0.000350904
69.1523	-0.0194092	64.8	649	0.000508602
69.2523	-0.0194183	64.9	650	-0.000422144
69.3523	-0.0194183	65	651	0.000167824
69.4523	-0.0194092	65.1	652	0.000137314
69.5523	-0.0194092	65.2	653	-0.000106798
69.6523	-0.0194183	65.3	654	-0.000137321
69.7523	-0.0194214	65.4	655	5.0813e-05
69.8523	-0.0194092	65.5	656	0.000228907
69.9523	-0.0194	65.6	657	1.52427e-05
70.0523	-0.0194061	65.7	658	-0.000178007
70.1523	-0.019397	65.8	659	0.000269587
70.2523	-0.0194122	65.9	660	-0.000406895
70.3523	-0.0194092	66	661	0.000264483
70.4523	-0.0194092	66.1	662	-8.64641e-05
70.5523	-0.0194153	66.2	663	-0.000101738
70.6523	-0.0194122	66.3	664	0.000127206
70.7523	-0.0194092	66.4	665	-2.48353e-08
70.8523	-0.0194092	66.5	666	-2.54251e-05
70.9523	-0.0194122	66.6	667	-4.5759e-05
71.0523	-0.0194122	66.7	668	3.56138e-05
71.1523	-0.0194092	66.8	669	4.57714e-05
71.2523	-0.0194061	66.9	670	2.03277e-05
71.3523	-0.0194031	67	671	3.0535e-05
71.4523	-0.0194092	67.1	672	-0.000137364
71.5523	-0.0194092	67.2	673	8.13977e-05
71.6523	-0.0194	67.3	674	0.000147491
71.7523	-0.0194061	67.4	675	-0.0002187
71.8523	-0.0193909	67.5	676	0.000381445
71.9523	-0.0194061	67.6	677	-0.000478123
72.0523	-0.0193909	67.7	678	0.000508614
72.1523	-0.0194	67.8	679	-0.000396731
72.2523	-0.0193909	67.9	680	0.000325529
72.3523	-0.0194	68	681	-0.000305188
72.4523	-0.019397	68.1	682	0.000193324
72.5523	-0.019397	68.2	683	-6.6124e-05
72.6523	-0.019397	68.3	684	1.01887e-05
72.7523	-0.0193909	68.4	685	0.000111871
72.8523	-0.019397	68.5	686	-0.000183073
72.9523	-0.019397	68.6	687	9.15553e-05
73.0523	-0.0193909	68.7	688	9.15305e-05
73.1523	-0.0193909	68.8	689	-7.12152e-05
73.2523	-0.0193909	68.9	690	2.03277e-05
73.3523	-0.0193848	69	691	0.000111895
73.4523	-0.0194	69.1	692	-0.000350935
73.5523	-0.0193848	69.2	693	0.000478117
73.6523	-0.0193939	69.3	694	-0.000396713
73.7523	-0.0193939	69.4	695	0.000157661
73.8523	-0.0193878	69.5	696	8.13915e-05
73.9523	-0.0193848	69.6	697	-1.52985e-05
74.0523	-0.0193909	69.7	698	-0.000127132
74.1523	-0.0193878	69.8	699	0.000137333
74.2523	-0.0193939	69.9	700	-0.00016788
74.3523	-0.0193787	70	701	0.000361142
74.4523	-0.0193787	70.1	702	-0.000198366
74.5523	-0.0193787	70.2	703	5.08627e-05
74.6523	-0.0193787	70.3	704	0
74.7523	-0.0193817	70.4	705	-5.59291e-05
74.8523	-0.0193848	70.5	706	-2.03649e-05
74.9523	-0.0193817	70.6	707	8.14349e-05
75.0523	-0.0193756	70.7	708	6.60743e-05
75.1523	-0.0193787	70.8	709	-0.000116968
75.2523	-0.0193756	70.9	710	0.000111871
75.3523	-0.0193756	71	711	-4.57839e-05
75.4523	-0.0193787	71.1	712	-4.57714e-05
75.5523	-0.0193756	71.2	713	9.15305e-05
75.6523	-0.0193756	71.3	714	-4.57839e-05
75.7523	-0.0193726	71.4	715	6.61364e-05
75.8523	-0.0193817	71.5	716	-0.000203463
75.9523	-0.0193756	71.6	717	0.00022887
76.0523	-0.0193634	71.7	718	0.000122084
76.1523	-0.0193512	71.8	719	0.000101738
76.2523	-0.0193726	71.9	720	-0.000493366
76.3523	-0.0193695	72	721	0.000345831
76.4523	-0.0193787	72.1	722	-0.000274616
76.5523	-0.0193604	72.2	723	0.000452642
76.6523	-0.0193634	72.3	724	-0.000300079
76.7523	-0.0193634	72.4	725	9.66341e-05
76.8523	-0.0193665	72.5	726	-6.60991e-05
76.9523	-0.0193695	72.6	727	-2.03649e-05
77.0523	-0.0193665	72.7	728	8.14349e-05
77.1523	-0.0193665	72.8	729	-4.57839e-05
77.2523	-0.0193542	72.9	730	0.000233955
77.3523	-0.0193634	73	731	-0.00031023
77.4523	-0.0193634	73.1	732	0.000147484
77.5523	-0.0193573	73.2	733	8.13915e-05
77.6523	-0.0193573	73.3	734	-7.12276e-05
77.7523	-0.0193665	73.4	735	-0.000147497
77.8523	-0.0193573	73.5	736	0.000274672
77.9523	-0.0193604	73.6	737	-0.000193324
78.0523	-0.0193451	73.7	738	0.000345869
78.1523	-0.0193542	73.8	739	-0.000356045
78.2523	-0.0193451	73.9	740	0.000325529
78.3523	-0.0193542	74	741	-0.000305188
78.4523	-0.0193451	74.1	742	0.000305182
78.5523	-0.0193512	74.2	743	-0.00024921
78.6523	-0.0193512	74.3	744	0.000101732
78.7523	-0.0193573	74.4	745	-0.000132236
78.8523	-0.0193481	74.5	746	0.000239027
78.9523	-0.0193512	74.6	747	-0.000183073
79.0523	-0.0193573	74.7	748	-4.57777e-05
79.1523	-0.0193542	74.8	749	0.000116949
79.2523	-0.0193359	74.9	750	0.000279807
79.3523	-0.0193542	75	751	-0.00053918
79.4523	-0.0193481	75.1	752	0.000386592
79.5523	-0.019339	75.2	753	3.55766e-05
79.6523	-0.019342	75.3	754	-0.000142375
79.7523	-0.019342	75.4	755	6.60867e-05
79.8523	-0.0193451	75.5	756	-6.6155e-05
79.9523	-0.019342	75.6	757	9.15863e-05
80.0523	-0.0193359	75.7	758	6.61053e-05
80.1523	-0.0193451	75.8	759	-0.000228894
80.2523	-0.0193481	75.9	760	7.12214e-05
80.3523	-0.019339	76	761	0.000172916
80.4523	-0.0193329	76.1	762	-5.05398e-06
80.5523	-0.0193359	76.2	763	-9.66341e-05
80.6523	-0.0193329	76.3	764	0.000111889
80.7523	-0.0193268	76.4	765	6.61364e-05
80.8523	-0.0193359	76.5	766	-0.000228894
80.9523	-0.0193176	76.6	767	0.000462855
81.0523	-0.0193298	76.7	768	-0.000467953
81.1523	-0.0193298	76.8	769	0.000203438
81.2523	-0.019339	76.9	770	-0.000208542
81.3523	-0.0193176	77	771	0.000498482
81.4523	-0.0193237	77.1	772	-0.000391665
81.5523	-0.0193237	77.2	773	0.000142437
81.6523	-0.0193298	77.3	774	-0.000132248
81.7523	-0.0193237	77.4	775	0.000183092
81.8523	-0.0193237	77.5	776	-9.15367e-05
81.9523	-0.0193237	77.6	777	2.03525e-05
82.0523	-0.0193115	77.7	778	0.000223822
82.1523	-0.0193207	77.8	779	-0.000310286
82.2523	-0.0193237	77.9	780	9.15491e-05
82.3523	-0.0193115	78	781	0.000228926
82.4523	-0.0193115	78.1	782	-0.000152625
82.5523	-0.0193146	78.2	783	-1.52923e-05
82.6523	-0.0193146	78.3	784	3.56076e-05
82.7523	-0.0193024	78.4	785	0.000213627
82.8523	-0.0193237	78.5	786	-0.000534071
82.9523	-0.0193207	78.6	787	0.000345918
83.0523	-0.0193085	78.7	788	0.000116949
83.1523	-0.0193115	78.8	789	-0.000188146
83.2523	-0.0193024	78.9	790	0.000244094
83.3523	-0.0193115	79	791	-0.000284805
83.4523	-0.0193268	79.1	792	-0.000142437
83.5523	-0.0192993	79.2	793	0.000651008
83.6523	-0.0193146	79.3	794	-0.000651039
83.7523	-0.0193146	79.4	795	0.000269556
83.8523	-0.0193024	79.5	796	0.000172941
83.9523	-0.0193146	79.6	797	-0.000366234
84.0523	-0.0193024	79.7	798	0.000406914
84.1523	-0.0193115	79.8	799	-0.000350948
84.2523	-0.0193085	79.9	800	0.000203413
84.3523	-0.0193085	80	801	-6.60867e-05
84.4523	-0.0193115	80.1	802	-4.57528e-05
84.5523	-0.0192993	80.2	803	0.000259336
84.6523	-0.0193115	80.3	804	-0.000376348
84.7523	-0.0193024	80.4	805	0.000350916
84.8523	-0.0193024	80.5	806	-0.000147484
84.9523	-0.0193024	80.6	807	3.05164e-05
85.0523	-0.0192993	80.7	808	5.59291e-05
85.1523	-0.0193054	80.8	809	-0.000147472
85.2523	-0.0192993	80.9	810	0.000193243
85.3523	-0.0193085	81	811	-0.000259392
85.4523	-0.0192993	81.1	812	0.000295006
85.5523	-0.0193054	81.2	813	-0.00024921
85.6523	-0.0193115	81.3	814	-1.01763e-05
85.7523	-0.0193024	81.4	815	0.000218687
85.8523	-0.0192871	81.5	816	0.0001526
85.9523	-0.0192963	81.6	817	-0.00031534
86.0523	-0.019281	81.7	818	0.000437399
86.1523	-0.019278	81.8	819	-0.000152613
86.2523	-0.0192841	81.9	820	-9.66155e-05
86.3523	-0.0192902	82	821	-3.05039e-05
86.4523	-0.0192902	82.1	822	5.08689e-05
86.5523	-0.019278	82.2	823	0.000203438
86.6523	-0.0192871	82.3	824	-0.00031023
86.7523	-0.0192993	82.4	825	-7.63313e-05
86.8523	-0.019281	82.5	826	0.000447613
86.9523	-0.019281	82.6	827	-0.000254338
87.0523	-0.0192871	82.7	828	-5.08751e-05
87.1523	-0.0192902	82.8	829	1.52923e-05
87.2523	-0.019281	82.9	830	0.000183104
87.3523	-0.019281	83	831	-0.000116999
87.4523	-0.0192963	83.1	832	-0.000249235
87.5523	-0.0192871	83.2	833	0.00034585
87.6523	-0.0192749	83.3	834	6.6155e-05
87.7523	-0.0192719	83.4	835	-5.59601e-05
87.8523	-0.0192871	83.5	836	-0.000274653
87.9523	-0.0192841	83.6	837	0.000244119
88.0523	-0.019278	83.7	838	2.54313e-05
88.1523	-0.019278	83.8	839	-6.10203e-05
88.2523	-0.0192963	83.9	840	-0.000315321
88.3523	-0.0192627	84	841	0.000829008
88.4523	-0.019281	84.1	842	-0.000788316
88.5523	-0.0192719	84.2	843	0.000493322
88.6523	-0.0192749	84.3	844	-0.00022376
88.7523	-0.0192688	84.4	845	0.000177988
88.8523	-0.0192688	84.5	846	-8.13853e-05
88.9523	-0.019278	84.6	847	-0.000147509
89.0523	-0.019281	84.7	848	5.08999e-05
89.1523	-0.0192688	84.8	849	0.00022882
89.2523	-0.019278	84.9	850	-0.000320419
89.3523	-0.0192719	85	851	0.000259423
89.4523	-0.0192657	85.1	852	1.01701e-05
89.5523	-0.0192719	85.2	853	-0.000162789
89.6523	-0.0192627	85.3	854	0.000259405
89.7523	-0.019278	85.4	855	-0.000406883
89.8523	-0.019278	85.5	856	0.000208542
89.9523	-0.0192657	85.6	857	0.000172959
90.0523	-0.0192657	85.7	858	-0.000142449
90.1523	-0.0192627	85.8	859	9.66155e-05
90.2523	-0.0192596	85.9	860	2.04084e-05
90.3523	-0.0192688	86	861	-0.000193324
90.4523	-0.0192627	86.1	862	0.000228888
90.5523	-0.0192474	86.2	863	0.000178032
90.6523	-0.0192596	86.3	864	-0.000381433
90.7523	-0.0192749	86.4	865	-8.64703e-05
90.8523	-0.0192596	86.5	866	0.00041709
90.9523	-0.0192627	86.6	867	-0.000284848
91.0523	-0.0192474	86.7	868	0.000366234
91.1523	-0.0192444	86.8	869	-0.000132211
91.2523	-0.0192535	86.9	870	-0.000152632
91.3523	-0.0192627	87	871	-5.08565e-05
91.4523	-0.0192596	87.1	872	0.000132285
91.5523	-0.0192596	87.2	873	-6.6124e-05
91.6523	-0.0192505	87.3	874	0.000178026
91.7523	-0.0192505	87.4	875	-0.000106829
91.8523	-0.0192444	87.5	876	0.000142418
91.9523	-0.0192535	87.6	877	-0.000239071
92.0523	-0.0192566	87.7	878	7.12214e-05
92.1523	-0.0192383	87.8	879	0.000340753
92.2523	-0.0192566	87.9	880	-0.000559477
92.3523	-0.0192627	88	881	0.000162746
92.4523	-0.0192535	88.1	882	0.000178032
92.5523	-0.0192505	88.2	883	-7.12028e-05
92.6523	-0.0192413	88.3	884	0.000162727
92.7523	-0.0192474	88.4	885	-0.00020853
92.8523	-0.0192444	88.5	886	0.000157723
92.9523	-0.0192413	88.6	887	-2.48353e-08
93.0523	-0.0192535	88.7	888	-0.000249241
93.1523	-0.0192413	88.8	889	0.000376391
93.2523	-0.0192352	88.9	890	-7.12028e-05
93.3523	-0.0192413	89	891	-0.000142443
93.4523	-0.0192322	89.1	892	0.000259405
93.5523	-0.0192444	89.2	893	-0.000350904
93.6523	-0.0192383	89.3	894	0.000284786
93.7523	-0.0192383	89.4	895	-0.000111902
93.8523	-0.0192352	89.5	896	7.63064e-05
93.9523	-0.0192444	89.6	897	-0.000203463
94.0523	-0.0192413	89.7	898	0.000172941
94.1523	-0.0192261	89.8	899	0.000213627
94.2523	-0.0192291	89.9	900	-0.000223778
94.3523	-0.0192261	90	901	0.000142406
94.4523	-0.0192261	90.1	902	-4.57714e-05
94.5523	-0.0192352	90.2	903	-0.000157667
94.6523	-0.0192291	90.3	904	0.0002187
94.7523	-0.0192291	90.4	905	-0.000101701
94.8523	-0.0192322	90.5	906	-3.562e-05
94.9523	-0.0192352	90.6	907	-2.03029e-05
95.0523	-0.0192261	90.7	908	0.000193231
95.1523	-0.0192291	90.8	909	-0.000172897
95.2523	-0.0192261	90.9	910	0.000122059
95.3523	-0.0192169	91	911	0.000122065
95.4523	-0.0192291	91.1	912	-0.000320388
95.5523	-0.0192383	91.2	913	5.04156e-06
95.6523	-0.0192261	91.3	914	0.000289933
95.7523	-0.0192261	91.4	915	-0.000172941
95.8523	-0.0192322	91.5	916	-7.12152e-05
95.9523	-0.0192291	91.6	917	0.000127206
96.0523	-0.0192139	91.7	918	0.000223791
96.1523	-0.01922	91.8	919	-0.000279739
96.2523	-0.0192352	91.9	920	-0.000157692
96.3523	-0.0192291	92	921	0.000269575
96.4523	-0.01922	92.1	922	4.57901e-05
96.5523	-0.0192108	92.2	923	8.13542e-05
96.6523	-0.0192383	92.3	924	-0.000579842
96.7523	-0.0192108	92.4	925	0.000854502
96.8523	-0.01922	92.5	926	-0.00057983
96.9523	-0.0192169	92.6	927	0.000254276
97.0523	-0.019223	92.7	928	-0.000177995
97.1523	-0.0192139	92.8	929	0.000249241
97.2523	-0.0192078	92.9	930	-1.52923e-05
97.3523	-0.0192139	93	931	-0.000152551
97.4523	-0.0192169	93.1	932	3.55766e-05
97.5523	-0.0192047	93.2	933	0.000239102
97.6523	-0.0191956	93.3	934	1.52116e-05
97.7523	-0.0192169	93.4	935	-0.000457758
97.8523	-0.01922	93.5	936	0.000223834
97.9523	-0.01922	93.6	937	-3.56386e-05
98.0523	-0.0191956	93.7	938	0.000437405
98.1523	-0.0192047	93.8	939	-0.000452654
98.2523	-0.0192139	93.9	940	2.03339e-05
98.3523	-0.0191956	94	941	0.000411993
98.4523	-0.0192108	94.1	942	-0.000523882
98.5523	-0.0192047	94.2	943	0.00035096
98.6523	-0.0192108	94.3	944	-0.000233998
98.7523	-0.0192078	94.4	945	0.000147497
98.8523	-0.0191925	94.5	946	0.000223785
98.9523	-0.0191925	94.6	947	-0.000167862
99.0523	-0.0192139	94.7	948	-0.000340753
99.1523	-0.0191986	94.8	949	0.000528979
99.2523	-0.0192139	94.9	950	-0.000528954
99.3523	-0.0191986	95	951	0.000508639
99.4523	-0.0192078	95.1	952	-0.000396756
99.5523	-0.0191956	95.2	953	0.000381483
99.6523	-0.0192017	95.3	954	-0.000284848
99.7523	-0.0191895	95.4	955	0.000335736
99.8523	-0.0192017	95.5	956	-0.000386611
99.9523	-0.0191986	95.6	957	0.00023912
100.052	-0.0191956	95.7	958	-2.03711e-05
100.152	-0.0191895	95.8	959	8.64827e-05
100.252	-0.0191925	95.9	960	-0.000117036
100.352	-0.0191986	96	961	-5.59042e-05
100.452	-0.0192017	96.1	962	5.06019e-06
100.552	-0.0191895	96.2	963	0.000239102
100.652	-0.0191895	96.3	964	-0.000152625
100.752	-0.0191956	96.4	965	-7.12214e-05
100.852	-0.0191956	96.5	966	7.12214e-05
100.952	-0.0191742	96.6	967	0.000371306
101.052	-0.0191895	96.7	968	-0.000528992
101.152	-0.0191956	96.8	969	0.000137314
101.252	-0.0191772	96.9	970	0.000356033
101.352	-0.0191895	97	971	-0.000457745
101.452	-0.0191833	97.1	972	0.000315334
101.552	-0.0191864	97.2	973	-0.000167849
101.652	-0.0191895	97.3	974	4.34618e-08
101.752	-0.0191803	97.4	975	0.000193231
101.852	-0.0191803	97.5	976	-0.000116968
101.952	-0.0191711	97.6	977	0.000198353
102.052	-0.0191956	97.7	978	-0.000554373
102.152	-0.0191864	97.8	979	0.000483171
102.252	-0.0191711	97.9	980	9.15739e-05
102.352	-0.0191742	98	981	-0.000203426
102.452	-0.0191772	98.1	982	3.04543e-05
102.552	-0.0191711	98.2	983	0.000137345
102.652	-0.0191711	98.3	984	-8.13666e-05
102.752	-0.0191742	98.4	985	-3.55766e-05
102.852	-0.0191833	98.5	986	-0.000132267
102.952	-0.019162	98.6	987	0.000488268
103.052	-0.0191772	98.7	988	-0.000559496
103.152	-0.019162	98.8	989	0.000528954
103.252	-0.0191742	98.9	990	-0.00045266
103.352	-0.019165	99	991	0.000361093
103.452	-0.0191742	99.1	992	-0.000315321
103.552	-0.0191742	99.2	993	0.000137308
103.652	-0.0191559	99.3	994	0.000305151
103.752	-0.0191711	99.4	995	-0.000493334
103.852	-0.019165	99.5	996	0.000350966
103.952	-0.0191681	99.6	997	-0.000178013
104.052	-0.0191711	99.7	998	-1.86265e-08
104.152	-0.0191711	99.8	999	2.54562e-05
104.252	-0.0191711	99.9	1000	-1.01701e-05
104.352	-0.0191681	100	1001	5.5985e-05
104.452	-0.0191681	100.1	1002	-3.56076e-05
104.552	-0.0191559	100.2	1003	0.000233955
104.652	-0.0191589	100.3	1004	-0.000198322
104.752	-0.0191528	100.4	1005	0.000188165
104.852	-0.019162	100.5	1006	-0.000249241
104.952	-0.0191528	100.6	1007	0.000295037
105.052	-0.0191711	100.7	1008	-0.00047305
105.152	-0.0191589	100.8	1009	0.000467984
105.252	-0.0191589	100.9	1010	-0.000203488
105.352	-0.019165	101	1011	-7.12214e-05
105.452	-0.0191559	101.1	1012	0.000239058
105.552	-0.0191589	101.2	1013	-0.000183067
105.652	-0.0191498	101.3	1014	0.000233924
105.752	-0.0191528	101.4	1015	-0.000172897
105.852	-0.0191345	101.5	1016	0.000401804
105.952	-0.0191498	101.6	1017	-0.000503536
106.052	-0.0191528	101.7	1018	0.000183123
106.152	-0.0191528	101.8	1019	-1.52489e-05
106.252	-0.0191528	101.9	1020	-1.01576e-05
106.352	-0.0191406	102	1021	0.000223778
106.452	-0.0191559	102.1	1022	-0.000422138
106.552	-0.0191437	102.2	1023	0.000442528
106.652	-0.0191467	102.3	1024	-0.00024929
106.752	-0.0191467	102.4	1025	7.63002e-05
106.852	-0.0191406	102.5	1026	0.000101719
106.952	-0.0191437	102.6	1027	-0.000127119
107.052	-0.0191345	102.7	1028	0.000223754
107.152	-0.0191315	102.8	1029	-6.10389e-05
107.252	-0.0191345	102.9	1030	-6.10265e-05
107.352	-0.0191498	103	1031	-0.000233973
107.452	-0.0191437	103.1	1032	0.000279757
107.552	-0.0191589	103.2	1033	-0.000401835
107.652	-0.0191376	103.3	1034	0.000590012
107.752	-0.0191406	103.4	1035	-0.000356045
107.852	-0.0191284	103.5	1036	0.000330651
107.952	-0.0191376	103.6	1037	-0.000320462
108.052	-0.0191406	103.7	1038	9.15491e-05
108.152	-0.0191315	103.8	1039	0.000172947
108.252	-0.0191406	103.9	1040	-0.000284848
108.352	-0.0191284	104	1041	0.000361161
108.452	-0.0191315	104.1	1042	-0.000228944
108.552	-0.0191315	104.2	1043	7.63002e-05
108.652	-0.0191162	104.3	1044	0.000269556
108.752	-0.0191223	104.4	1045	-0.00028989
108.852	-0.0191223	104.5	1046	0.000122078
108.952	-0.0191223	104.6	1047	-2.03277e-05
109.052	-0.0191254	104.7	1048	-5.59663e-05
109.152	-0.0191315	104.8	1049	-7.62816e-05
109.252	-0.0191193	104.9	1050	0.000284824
109.352	-0.0191193	105	1051	-0.000162764
109.452	-0.0191132	105.1	1052	0.0001526
109.552	-0.0191345	105.2	1053	-0.00046288
109.652	-0.0191223	105.3	1054	0.000493403
109.752	-0.0191162	105.4	1055	-0.000101756
109.852	-0.0191376	105.5	1056	-0.000422125
109.952	-0.0191132	105.6	1057	0.000717156
110.052	-0.0191315	105.7	1058	-0.000691775
110.152	-0.0191162	105.8	1059	0.000574751
110.252	-0.0191101	105.9	1060	-0.000127163
110.352	-0.0191132	106	1061	-7.62568e-05
110.452	-0.0191132	106.1	1062	5.59167e-05
110.552	-0.0191193	106.2	1063	-0.000122084
110.652	-0.0191071	106.3	1064	0.000295037
110.752	-0.0191254	106.4	1065	-0.000498475
110.852	-0.0191193	106.5	1066	0.000366246
110.952	-0.0191254	106.6	1067	-0.000244168
111.052	-0.0191193	106.7	1068	0.000203482
111.152	-0.0191223	106.8	1069	-0.000147497
111.252	-0.0191132	106.9	1070	0.000223797
111.352	-0.0191193	107	1071	-0.000228907
111.452	-0.0190979	107.1	1072	0.00049339
111.552	-0.019101	107.2	1073	-0.000325572
111.652	-0.0191101	107.3	1074	-6.10203e-05
111.752	-0.0191162	107.4	1075	-1.52551e-05
111.852	-0.019104	107.5	1076	0.000264483
111.952	-0.019104	107.6	1077	-0.000162764
112.052	-0.019101	107.7	1078	9.66217e-05
112.152	-0.0191132	107.8	1079	-0.00025938
112.252	-0.0190979	107.9	1080	0.000432308
112.352	-0.019104	108	1081	-0.00033062
112.452	-0.0190979	108.1	1082	0.000233992
112.552	-0.019104	108.2	1083	-0.000203482
112.652	-0.0190979	108.3	1084	0.000203476
112.752	-0.0190857	108.4	1085	0.000132192
112.852	-0.0191071	108.5	1086	-0.000513668
112.952	-0.0191071	108.6	1087	0.000289921
113.052	-0.019101	108.7	1088	4.06678e-05
113.152	-0.019101	108.8	1089	-7.12152e-05
113.252	-0.0190948	108.9	1090	0.000132236
113.352	-0.0190979	109	1091	-0.000127119
113.452	-0.0190948	109.1	1092	0.000111846
113.552	-0.0190796	109.2	1093	0.000234004
113.652	-0.0190857	109.3	1094	-0.000279751
113.752	-0.0190948	109.4	1095	-4.57901e-05
113.852	-0.0190918	109.5	1096	0.000142461
113.952	-0.019101	109.6	1097	-0.000234011
114.052	-0.0190979	109.7	1098	0.000172959
114.152	-0.0190887	109.8	1099	0.000101688
114.252	-0.0190948	109.9	1100	-0.00020853
114.352	-0.0190918	110	1101	0.000157723
114.452	-0.0190948	110.1	1102	-0.000111933
114.552	-0.0190918	110.2	1103	0.000101781
114.652	-0.0190918	110.3	1104	-4.57839e-05
114.752	-0.0190857	110.4	1105	0.000122047
114.852	-0.0190826	110.5	1106	-1.52365e-05
114.952	-0.0190826	110.6	1107	-1.52861e-05
115.052	-0.0190735	110.7	1108	0.000178007
115.152	-0.0190979	110.8	1109	-0.00055438
115.252	-0.0190613	110.9	1110	0.000986725
115.352	-0.0190826	111	1111	-0.000900255
115.452	-0.0190887	111.1	1112	0.000259374
115.552	-0.0190674	111.2	1113	0.000391665
115.652	-0.0190857	111.3	1114	-0.000605317
115.752	-0.0190857	111.4	1115	0.000284836
115.852	-0.0190765	111.5	1116	0.000106835
115.952	-0.0190674	111.6	1117	6.10327e-05
116.052	-0.0190887	111.7	1118	-0.000467959
116.152	-0.0190674	111.8	1119	0.00067141
116.252	-0.0190796	111.9	1120	-0.000544272
116.352	-0.0190704	112	1121	0.000381495
116.452	-0.0190704	112.1	1122	-0.000147528
116.552	-0.0190643	112.2	1123	0.000142412
116.652	-0.0190613	112.3	1124	-1.52116e-05
116.752	-0.0190674	112.4	1125	-0.000127169
116.852	-0.0190643	112.5	1126	0.000137296
116.952	-0.0190674	112.6	1127	-0.000111846
117.052	-0.0190674	112.7	1128	4.57404e-05
117.152	-0.0190643	112.8	1129	4.57528e-05
117.252	-0.0190704	112.9	1130	-0.000147478
117.352	-0.0190643	113	1131	0.000193262
117.452	-0.0190521	113.1	1132	0.000132279
117.552	-0.0190582	113.2	1133	-0.000234011
117.652	-0.0190521	113.3	1134	0.000223822
117.752	-0.0190552	113.4	1135	-0.000147553
117.852	-0.0190521	113.5	1136	0.000111933
117.952	-0.0190643	113.6	1137	-0.000269618
118.052	-0.0190613	113.7	1138	0.000208604
118.152	-0.0190674	113.8	1139	-0.000188208
118.252	-0.0190552	113.9	1140	0.000305133
118.352	-0.0190521	114	1141	-0.000106779
118.452	-0.0190552	114.1	1142	-5.09186e-05
118.552	-0.0190613	114.2	1143	-6.60743e-05
118.652	-0.0190491	114.3	1144	0.000284805
118.752	-0.019043	114.4	1145	-5.08254e-05
118.852	-0.0190399	114.5	1146	2.53941e-05
118.952	-0.0190491	114.6	1147	-0.000183104
119.052	-0.0190552	114.7	1148	5.09123e-06
119.152	-0.0190521	114.8	1149	9.66465e-05
119.252	-0.0190521	114.9	1150	-5.59725e-05
119.352	-0.019046	115	1151	0.000122078
119.452	-0.0190491	115.1	1152	-0.000127163
119.552	-0.0190399	115.2	1153	0.000223809
119.652	-0.019046	115.3	1154	-0.00022887
119.752	-0.0190552	115.4	1155	-6.6155e-05
119.852	-0.019043	115.5	1156	0.00031028
119.952	-0.0190369	115.6	1157	-6.10327e-05
120.052	-0.0190369	115.7	1158	-3.0535e-05
120.152	-0.0190491	115.8	1159	-0.000203476
120.252	-0.019046	115.9	1160	0.000198428
120.352	-0.019046	116	1161	-7.63002e-05
120.452	-0.0190369	116.1	1162	0.000178026
120.552	-0.019046	116.2	1163	-0.000274666
120.652	-0.019046	116.3	1164	0.000137352
120.752	-0.019043	116.4	1165	2.54251e-05
120.852	-0.0190399	116.5	1166	2.03277e-05
120.952	-0.0190399	116.6	1167	-2.54438e-05
121.052	-0.0190399	116.7	1168	1.01576e-05
121.152	-0.0190521	116.8	1169	-0.000223778
121.252	-0.019043	116.9	1170	0.00031023
121.352	-0.0190369	117	1171	-3.55766e-05
121.452	-0.0190369	117.1	1172	-4.07113e-05
121.552	-0.0190399	117.2	1173	-3.56386e-05
121.652	-0.0190369	117.3	1174	9.15863e-05
121.752	-0.0190277	117.4	1175	0.000122034
121.852	-0.0190399	117.5	1176	-0.000320437
121.952	-0.0190369	117.6	1177	0.000228901
122.052	-0.0190277	117.7	1178	9.1518e-05
122.152	-0.0190186	117.8	1179	7.12152e-05
122.252	-0.0190277	117.9	1180	-0.000244112
122.352	-0.0190308	118	1181	8.13853e-05
122.452	-0.0190277	118.1	1182	6.10265e-05
122.552	-0.0190308	118.2	1183	-0.000101701
122.652	-0.0190308	118.3	1184	4.57839e-05
122.752	-0.0190247	118.4	1185	0.000101701
122.852	-0.0190155	118.5	1186	9.66714e-05
122.952	-0.0190186	118.6	1187	-0.000142443
123.052	-0.0190125	118.7	1188	0.000178057
123.152	-0.0190338	118.8	1189	-0.00047305
123.252	-0.0190277	118.9	1190	0.000381501
123.352	-0.0190216	119	1191	-3.05226e-05
123.452	-0.0190125	119.1	1192	0.000116956
123.552	-0.0190155	119.2	1193	-0.000142381
123.652	-0.0190216	119.3	1194	-4.57777e-05
123.752	-0.0190094	119.4	1195	0.000284786
123.852	-0.0190247	119.5	1196	-0.000442503
123.952	-0.0190155	119.6	1197	0.00038658
124.052	-0.0190186	119.7	1198	-0.000213646
124.152	-0.0190002	119.8	1199	0.000401872
124.252	-0.0190277	119.9	1200	-0.000727364