File: data/20200205/OCP_p29_1.txt
Time (s);WE(1).Potential (V);Corrected time (s);Index;dWE(1).Potential/dt (V/s);OCP value (V)
4.3648;-0.00397644;0;1;0;-0.00436189
4.4648;-0.00397339;0.1;2;3.05195e-05;
4.5648;-0.0039856;0.2;3;-0.00019837;
4.6648;-0.00398865;0.3;4;9.66481e-05;
4.7648;-0.00398254;0.4;5;0.000106803;
4.8648;-0.00398254;0.5;6;-8.13759e-05;
4.9648;-0.00399475;0.6;7;-0.000203446;
5.0648;-0.0039856;0.7;8;0.000310255;
5.1648;-0.0039917;0.8;9;-0.000259398;
5.2648;-0.00398254;0.9;10;0.000269578;
5.3648;-0.00399475;1;11;-0.000350951;
5.4648;-0.0039856;1.1;12;0.000340773;
5.5648;-0.00400696;1.2;13;-0.000539143;
5.6648;-0.0039917;1.3;14;0.000559493;
5.7648;-0.0039978;1.4;15;-0.000361121;
5.8648;-0.0039917;1.5;16;0.000233962;
5.9648;-0.00400085;1.6;17;-0.000259397;
6.0648;-0.0039856;1.7;18;0.000406895;
6.1648;-0.00400391;1.8;19;-0.000544227;
6.2648;-0.0039978;1.9;20;0.000376376;
6.3648;-0.00401001;2;21;-0.000356029;
6.4648;-0.00399475;2.1;22;0.000442507;
6.5648;-0.00400391;2.2;23;-0.000386555;
6.6648;-0.00401306;2.3;24;-1.01794e-05;
6.7648;-0.00400391;2.4;25;0.000244146;
6.8648;-0.00401001;2.5;26;-0.00024923;
6.9648;-0.00402527;2.6;27;-0.000178013;
7.0648;-0.00401611;2.7;28;0.000325515;
7.1648;-0.00401611;2.8;29;-0.000157676;
7.2648;-0.00400696;2.9;30;0.000198363;
7.3648;-0.00401306;3;31;-0.000218703;
7.4648;-0.00402222;3.1;32;-6.61271e-05;
7.5648;-0.00402222;3.2;33;8.64718e-05;
7.6648;-0.00402222;3.3;34;-3.05164e-05;
7.7648;-0.00402832;3.4;35;-0.000111894;
7.8648;-0.00400696;3.5;36;0.000462844;
7.9648;-0.00402527;3.6;37;-0.000605253;
8.0648;-0.00402527;3.7;38;0.00028483;
8.1648;-0.00402832;3.8;39;-0.000116985;
8.2648;-0.00402527;3.9;40;9.15584e-05;
8.3648;-0.00403748;4;41;-0.000269578;
8.4648;-0.00404053;4.1;42;9.66528e-05;
8.5648;-0.00402832;4.2;43;0.000218703;
8.6648;-0.00402527;4.3;44;-9.66326e-05;
8.7648;-0.00402832;4.4;45;-5.08658e-05;
8.8648;-0.00404053;4.5;46;-0.000178013;
8.9648;-0.00403748;4.6;47;0.000188186;
9.0648;-0.00403442;4.7;48;-2.03339e-05;
9.1648;-0.00401917;4.8;49;0.000254304;
9.2648;-0.00404358;4.9;50;-0.000615442;
9.3648;-0.00404053;5;51;0.000391651;
9.4648;-0.00403442;5.1;52;-5.08658e-06;
9.5648;-0.00404968;5.2;53;-0.000340784;
9.6648;-0.00403442;5.3;54;0.000478107;
9.7648;-0.00403137;5.4;55;-0.000172942;
9.8648;-0.00404358;5.5;56;-0.000208531;
9.9648;-0.00403442;5.6;57;0.000320436;
10.0648;-0.00403748;5.7;58;-0.00020346;
10.1648;-0.00404968;5.8;59;-0.000157661;
10.2648;-0.00404663;5.9;60;0.000188175;
10.3648;-0.00404968;6;61;-0.000132234;
10.4648;-0.00404663;6.1;62;0.000101711;
10.5648;-0.00405273;6.2;63;-0.00015767;
10.6648;-0.00404053;6.3;64;0.000305187;
10.7648;-0.00406494;6.4;65;-0.000610355;
10.8648;-0.00404663;6.5;66;0.000661204;
10.9648;-0.00404663;6.6;67;-0.000295003;
11.0648;-0.00405579;6.7;68;-0.000106806;
11.1648;-0.00404358;6.8;69;0.000330604;
11.2648;-0.00406494;6.9;70;-0.000564571;
11.3648;-0.00405579;7;71;0.000457761;
11.4648;-0.00406799;7.1;72;-0.000401816;
11.5648;-0.00405273;7.2;73;0.000452684;
11.6648;-0.00406189;7.3;74;-0.000386558;
11.7648;-0.00405273;7.4;75;0.000325518;
11.8648;-0.00406494;7.5;76;-0.000361116;
11.9648;-0.00406189;7.6;77;0.000228867;
12.0648;-0.00406494;7.7;78;-0.000132234;
12.1648;-0.00406799;7.8;79;-1.0184e-05;
12.2648;-0.00406799;7.9;80;2.54407e-05;
12.3648;-0.00405579;8;81;0.000213632;
12.4648;-0.00407104;8.1;82;-0.000422161;
12.5648;-0.0040802;8.2;83;5.08642e-05;
12.6648;-0.00407715;8.3;84;0.000111886;
12.7648;-0.00405884;8.4;85;0.000269578;
12.8648;-0.00408325;8.5;86;-0.000651046;
12.9648;-0.00407104;8.6;87;0.000569675;
13.0648;-0.0040802;8.7;88;-0.000391646;
13.1648;-0.00405884;8.8;89;0.000539139;
13.2648;-0.0040741;8.9;90;-0.000559486;
13.3648;-0.00408325;9;91;8.13775e-05;
13.4648;-0.0040802;9.1;92;0.000111908;
13.5648;-0.00408936;9.2;93;-0.00023398;
13.6648;-0.00406494;9.3;94;0.000564582;
13.7648;-0.0040802;9.4;95;-0.000595099;
13.8648;-0.00407715;9.5;96;0.00031534;
13.9648;-0.00408936;9.6;97;-0.000310256;
14.0648;-0.0040802;9.7;98;0.000320436;
14.1648;-0.00407715;9.8;99;-9.15646e-05;
14.2648;-0.0040863;9.9;100;-0.000172922;
14.3648;-0.00408325;10;101;0.000172927;
14.4648;-0.00408936;10.1;102;-0.00017801;
14.5648;-0.00408936;10.2;103;8.13759e-05;
14.6648;-0.00409241;10.3;104;-7.62987e-05;
14.7648;-0.00409241;10.4;105;3.56014e-05;
14.8648;-0.0040802;10.5;106;0.000213627;
14.9648;-0.00408936;10.6;107;-0.00031027;
15.0648;-0.00409241;10.7;108;9.15522e-05;
15.1648;-0.00409241;10.8;109;5.08347e-06;
15.2648;-0.00410156;10.9;110;-0.000178013;
15.3648;-0.0040863;11;111;0.000386558;
15.4648;-0.00408936;11.1;112;-0.000264487;
15.5648;-0.00409851;11.2;113;-8.13821e-05;
15.6648;-0.00408936;11.3;114;0.000264493;
15.7648;-0.00410156;11.4;115;-0.000361124;
15.8648;-0.00409241;11.5;116;0.000340773;
15.9648;-0.00409851;11.6;117;-0.000259398;
16.0648;-0.0040863;11.7;118;0.000325532;
16.1648;-0.00408936;11.8;119;-0.000218715;
16.2648;-0.00410461;11.9;120;-0.000203449;
16.3648;-0.00410767;12;121;0.000111892;
16.4648;-0.00410767;12.1;122;-1.52613e-05;
16.5648;-0.00410156;12.2;123;0.000101732;
16.6648;-0.00410767;12.3;124;-0.000183114;
16.7648;-0.00411377;12.4;125;-2.03432e-05;
16.8648;-0.00411072;12.5;126;0.00010682;
16.9648;-0.00410461;12.6;127;5.59384e-05;
17.0648;-0.00411987;12.7;128;-0.000340776;
17.1648;-0.00410767;12.8;129;0.000422155;
17.2648;-0.00411377;12.9;130;-0.000305176;
17.3648;-0.00409851;13;131;0.000391646;
17.4648;-0.00410767;13.1;132;-0.000366212;
17.5648;-0.00411072;13.2;133;0.000101727;
17.6648;-0.00411072;13.3;134;5.08037e-06;
17.7648;-0.00411377;13.4;135;-6.61271e-05;
17.8648;-0.00411377;13.5;136;3.56123e-05;
17.9648;-0.00411987;13.6;137;-0.000122067;
18.0648;-0.00411377;13.7;138;0.0001831;
18.1648;-0.00411377;13.8;139;-9.15475e-05;
18.2648;-0.00411682;13.9;140;-3.55952e-05;
18.3648;-0.00411987;14;141;-2.0351e-05;
18.4648;-0.00411377;14.1;142;0.000137328;
18.5648;-0.00411987;14.2;143;-0.000193271;
18.6648;-0.00411072;14.3;144;0.000259398;
18.7648;-0.00412292;14.4;145;-0.000350965;
18.8648;-0.00411987;14.5;146;0.000228888;
18.9648;-0.00412292;14.6;147;-0.000132249;
19.0648;-0.00412598;14.7;148;-1.01669e-05;
19.1648;-0.00413208;14.8;149;-8.64703e-05;
19.2648;-0.00412292;14.9;150;0.000228879;
19.3648;-0.00412598;15;151;-0.0001831;
19.4648;-0.00412598;15.1;152;6.61147e-05;
19.5648;-0.00411987;15.2;153;0.000101722;
19.6648;-0.00412598;15.3;154;-0.0001831;
19.7648;-0.00413208;15.4;155;-2.03479e-05;
19.8648;-0.00412292;15.5;156;0.000218706;
19.9648;-0.00412903;15.6;157;-0.000239054;
20.0648;-0.00412903;15.7;158;0.000101728;
20.1648;-0.00412292;15.8;159;9.15522e-05;
20.2648;-0.00412903;15.9;160;-0.000183109;
20.3648;-0.00413513;16;161;-2.03386e-05;
20.4648;-0.00412903;16.1;162;0.000162755;
20.5648;-0.00413208;16.2;163;-0.000147489;
20.6648;-0.00413513;16.3;164;-6.20882e-09;
20.7648;-0.00412903;16.4;165;0.000137328;
20.8648;-0.00413513;16.5;166;-0.000193271;
20.9648;-0.00413818;16.6;167;3.55952e-05;
21.0648;-0.00412903;16.7;168;0.000183106;
21.1648;-0.00414124;16.8;169;-0.000340771;
21.2648;-0.00414124;16.9;170;0.000172925;
21.3648;-0.00413513;17;171;7.12043e-05;
21.4648;-0.00415039;17.1;172;-0.000350949;
21.5648;-0.00415039;17.2;173;0.000198364;
21.6648;-0.00414124;17.3;174;0.000116987;
21.7648;-0.00413818;17.4;175;-5.08751e-05;
21.8648;-0.00413818;17.5;176;-5.08503e-06;
21.9648;-0.00413513;17.6;177;6.61224e-05;
22.0648;-0.00414124;17.7;178;-0.0001475;
22.1648;-0.00414429;17.8;179;2.5422e-05;
22.2648;-0.00415039;17.9;180;-9.66279e-05;
22.3648;-0.0041626;18;181;-0.00016276;
22.4648;-0.00415649;18.1;182;0.000233969;
22.5648;-0.00415039;18.2;183;-6.20882e-09;
22.6648;-0.00414734;18.3;184;5.09434e-06;
22.7648;-0.00414734;18.4;185;-1.52566e-05;
22.8648;-0.00414734;18.5;186;1.01763e-05;
22.9648;-0.00414124;18.6;187;0.000111899;
23.0648;-0.00414124;18.7;188;-7.12121e-05;
23.1648;-0.00414734;18.8;189;-9.15522e-05;
23.2648;-0.00414734;18.9;190;7.12136e-05;
23.3648;-0.00414734;19;191;-2.03417e-05;
23.4648;-0.00415955;19.1;192;-0.0002238;
23.5648;-0.00415039;19.2;193;0.00031027;
23.6648;-0.00415955;19.3;194;-0.000315355;
23.7648;-0.00415344;19.4;195;0.00024923;
23.8648;-0.00415955;19.5;196;-0.000213627;
23.9648;-0.0041626;19.6;197;3.56154e-05;
24.0648;-0.0041626;19.7;198;1.52582e-05;
24.1648;-0.0041626;19.8;199;-1.01685e-05;
24.2648;-0.00415649;19.9;200;0.000111899;
24.3648;-0.00416565;20;201;-0.000239061;
24.4648;-0.00415649;20.1;202;0.000295009;
24.5648;-0.0041626;20.2;203;-0.00024923;
24.6648;-0.00415955;20.3;204;0.000157673;
24.7648;-0.0041687;20.4;205;-0.000223792;
24.8648;-0.00417786;20.5;206;-5.08596e-05;
24.9648;-0.00416565;20.6;207;0.000300086;
25.0648;-0.0041687;20.7;208;-0.000228885;
25.1648;-0.00416565;20.8;209;0.000132245;
25.2648;-0.00416565;20.9;210;-4.57777e-05;
25.3648;-0.00416565;21;211;1.01732e-05;
25.4648;-0.0041687;21.1;212;-5.59539e-05;
25.5648;-0.0041626;21.2;213;0.000147509;
25.6648;-0.00416565;21.3;214;-0.000137333;
25.7648;-0.00418091;21.4;215;-0.000223794;
25.8648;-0.00416565;21.5;216;0.000447591;
25.9648;-0.00417786;21.6;217;-0.000452673;
26.0648;-0.00417786;21.7;218;0.000193281;
26.1648;-0.00417786;21.8;219;-4.06864e-05;
26.2648;-0.00417786;21.9;220;3.10441e-09;
26.3648;-0.0041748;22;221;5.59446e-05;
26.4648;-0.0041748;22.1;222;-3.55983e-05;
26.5648;-0.00418701;22.2;223;-0.000213618;
26.6648;-0.00417175;22.3;224;0.000422152;
26.7648;-0.00418396;22.4;225;-0.000442514;
26.8648;-0.00417786;22.5;226;0.000305187;
26.9648;-0.0041748;22.6;227;-5.59555e-05;
27.0648;-0.00419006;22.7;228;-0.000294997;
27.1648;-0.00418396;22.8;229;0.000300088;
27.2648;-0.00418396;22.9;230;-0.000122076;
27.3648;-0.00419312;23;231;-0.000147495;
27.4648;-0.00418701;23.1;232;0.000218709;
27.5648;-0.00419617;23.2;233;-0.000269578;
27.6648;-0.00419006;23.3;234;0.000239055;
27.7648;-0.00418091;23.4;235;6.61286e-05;
27.8648;-0.00419006;23.5;236;-0.00025432;
27.9648;-0.00418701;23.6;237;0.000193288;
28.0648;-0.00418396;23.7;238;-1.01887e-05;
28.1648;-0.00419006;23.8;239;-0.000137325;
28.2648;-0.00419006;23.9;240;8.13837e-05;
28.3648;-0.00418701;24;241;3.56107e-05;
28.4648;-0.00419006;24.1;242;-9.15662e-05;
28.5648;-0.00420837;24.2;243;-0.000289901;
28.6648;-0.00418701;24.3;244;0.000595089;
28.7648;-0.00419312;24.4;245;-0.000422161;
28.8648;-0.00419617;24.5;246;8.64672e-05;
28.9648;-0.00419922;24.6;247;-4.06942e-05;
29.0648;-0.00419617;24.7;248;8.13821e-05;
29.1648;-0.00419922;24.8;249;-0.000101732;
29.2648;-0.00419312;24.9;250;0.000157682;
29.3648;-0.00418091;25;251;0.000142412;
29.4648;-0.00419922;25.1;252;-0.000457767;
29.5648;-0.00419617;25.2;253;0.000310264;
29.6648;-0.00419922;25.3;254;-0.000152594;
29.7648;-0.00419617;25.4;255;0.000101728;
29.8648;-0.00420227;25.5;256;-0.000157673;
29.9648;-0.00420227;25.6;257;8.13759e-05;
30.0648;-0.00420227;25.7;258;-2.03463e-05;
30.1648;-0.00419312;25.8;259;0.000167848;
30.2648;-0.00420227;25.9;260;-0.000274655;
30.3648;-0.00420837;26;261;2.54298e-05;
30.4648;-0.00419617;26.1;262;0.000264487;
30.5648;-0.00421143;26.2;263;-0.000442504;
30.6648;-0.00422058;26.3;264;5.08596e-05;
30.7648;-0.00421143;26.4;265;0.000223803;
30.8648;-0.00420837;26.5;266;-8.1379e-05;
30.9648;-0.00419922;26.6;267;0.000162753;
31.0648;-0.00420837;26.7;268;-0.000264477;
31.1648;-0.00421143;26.8;269;8.13759e-05;
31.2648;-0.00420532;26.9;270;0.000116984;
31.3648;-0.00420837;27;271;-0.000137317;
31.4648;-0.00419617;27.1;272;0.000279739;
31.5648;-0.00420837;27.2;273;-0.000376377;
31.6648;-0.00420532;27.3;274;0.000239049;
31.7648;-0.00420837;27.4;275;-0.000132229;
31.8648;-0.00421753;27.5;276;-0.000122075;
31.9648;-0.00421753;27.6;277;9.66357e-05;
32.0648;-0.00421753;27.7;278;-3.05195e-05;
32.1648;-0.00421753;27.8;279;-1.55221e-09;
32.2648;-0.00422363;27.9;280;-0.000111897;
32.3648;-0.00421753;28;281;0.000183109;
32.4648;-0.00421753;28.1;282;-9.15569e-05;
32.5648;-0.00422668;28.2;283;-0.000147506;
32.6648;-0.00421143;28.3;284;0.00038656;
32.7648;-0.00422363;28.4;285;-0.000432328;
32.8648;-0.00421448;28.5;286;0.000361118;
32.9648;-0.00422363;28.6;287;-0.00031534;
33.0648;-0.00422363;28.7;288;0.00013733;
33.1648;-0.00422668;28.8;289;-8.64672e-05;
33.2648;-0.00422974;28.9;290;-2.03494e-05;
33.3648;-0.00422058;29;291;0.000193278;
33.4648;-0.00422668;29.1;292;-0.000228876;
33.5648;-0.00422058;29.2;293;0.000213618;
33.6648;-0.00422058;29.3;294;-9.15475e-05;
33.7648;-0.00422974;29.4;295;-0.000147503;
33.8648;-0.00422668;29.5;296;0.00016276;
33.9648;-0.00422668;29.6;297;-6.61224e-05;
34.0648;-0.00422363;29.7;298;6.61271e-05;
34.1648;-0.00421753;29.8;299;7.6294e-05;
34.2648;-0.00424194;29.9;300;-0.000508633;
34.3648;-0.00423279;30;301;0.000473029;
34.4648;-0.00423279;30.1;302;-0.000188197;
34.5648;-0.00423279;30.2;303;3.05164e-05;
34.6648;-0.00422668;30.3;304;0.000111894;
34.7648;-0.00422668;30.4;305;-7.12043e-05;
34.8648;-0.00423584;30.5;306;-0.000147505;
34.9648;-0.004245;30.6;307;-6.10327e-05;
35.0648;-0.00422974;30.7;308;0.000356033;
35.1648;-0.00423279;30.8;309;-0.000264482;
35.2648;-0.00422974;30.9;310;0.000142402;
35.3648;-0.00423889;31;311;-0.000213611;
35.4648;-0.00424194;31.1;312;6.10312e-05;
35.5648;-0.00423584;31.2;313;0.000116984;
35.6648;-0.004245;31.3;314;-0.000249225;
35.7648;-0.00423889;31.4;315;0.000239058;
35.8648;-0.0042511;31.5;316;-0.000325527;
35.9648;-0.00424805;31.6;317;0.000218721;
36.0648;-0.004245;31.7;318;-2.03618e-05;
36.1648;-0.00424805;31.8;319;-8.13713e-05;
36.2648;-0.00424194;31.9;320;0.000157665;
36.3648;-0.004245;32;321;-0.00013733;
36.4648;-0.00424805;32.1;322;4.65662e-09;
36.5648;-0.00423889;32.2;323;0.000193274;
36.6648;-0.0042511;32.3;324;-0.000340781;
36.7648;-0.004245;32.4;325;0.000284834;
36.8648;-0.00423889;32.5;326;3.10441e-09;
36.9648;-0.0042511;32.6;327;-0.000274664;
37.0648;-0.00424194;32.7;328;0.000330617;
37.1648;-0.00424194;32.8;329;-0.000147506;
37.2648;-0.0042511;32.9;330;-0.000137331;
37.3648;-0.00425415;33;331;5.08751e-05;
37.4648;-0.004245;33.1;332;0.000172922;
37.5648;-0.004245;33.2;333;-0.000116985;
37.6648;-0.0042572;33.3;334;-0.000193278;
37.7648;-0.00424805;33.4;335;0.000310264;
37.8648;-0.004245;33.5;336;-9.15646e-05;
37.9648;-0.00425415;33.6;337;-0.000172922;
38.0648;-0.00425415;33.7;338;0.000116985;
38.1648;-0.004245;33.8;339;0.000137324;
38.2648;-0.00426025;33.9;340;-0.000386558;
38.3648;-0.0042511;34;341;0.000376382;
38.4648;-0.0042572;34.1;342;-0.000269565;
38.5648;-0.004245;34.2;343;0.000325513;
38.6648;-0.00425415;34.3;344;-0.0003306;
38.7648;-0.0042572;34.4;345;9.15491e-05;
38.8648;-0.004245;34.5;346;0.000228879;
38.9648;-0.0042572;34.6;347;-0.000376382;
39.0648;-0.00426636;34.7;348;1.52551e-05;
39.1648;-0.0042511;34.8;349;0.000345872;
39.2648;-0.00425415;34.9;350;-0.000264477;
39.3648;-0.0042572;35;351;3.05117e-05;
39.4648;-0.0042572;35.1;352;2.54329e-05;
39.5648;-0.00426025;35.2;353;-6.61271e-05;
39.6648;-0.00426025;35.3;354;3.56014e-05;
39.7648;-0.0042572;35.4;355;4.57777e-05;
39.8648;-0.00427551;35.5;356;-0.000371303;
39.9648;-0.00426025;35.6;357;0.000503539;
40.0648;-0.0042511;35.7;358;-7.1209e-05;
40.1648;-0.00427246;35.8;359;-0.000447585;
40.2648;-0.00426636;35.9;360;0.000391637;
40.3648;-0.00427551;36;361;-0.00031026;
40.4648;-0.00426636;36.1;362;0.000295;
40.5648;-0.00426025;36.2;363;-2.54298e-05;
40.6648;-0.00426941;36.3;364;-0.000208533;
40.7648;-0.0042572;36.4;365;0.000350949;
40.8648;-0.00426636;36.5;366;-0.000340781;
40.9648;-0.0042572;36.6;367;0.000315355;
41.0648;-0.00426941;36.7;368;-0.000361124;
41.1648;-0.00426331;36.8;369;0.000284831;
41.2648;-0.00427246;36.9;370;-0.000279751;
41.3648;-0.00426331;37;371;0.000295009;
41.4648;-0.00427856;37.1;372;-0.000417079;
41.5648;-0.00426941;37.2;373;0.000376385;
41.6648;-0.00427551;37.3;374;-0.000269576;
41.7648;-0.00427551;37.4;375;0.000101724;
41.8648;-0.00427246;37.5;376;3.56045e-05;
41.9648;-0.00428467;37.6;377;-0.000259395;
42.0648;-0.00427246;37.7;378;0.000376382;
42.1648;-0.00428162;37.8;379;-0.000350954;
42.2648;-0.00428162;37.9;380;0.000147506;
42.3648;-0.00427551;38;381;8.1379e-05;
42.4648;-0.00427856;38.1;382;-0.000127155;
42.5648;-0.00426636;38.2;383;0.000279734;
42.6648;-0.00427856;38.3;384;-0.00037637;
42.7648;-0.00428162;38.4;385;0.000127143;
42.8648;-0.00427856;38.5;386;5.08766e-05;
42.9648;-0.00427246;38.6;387;6.611e-05;
43.0648;-0.00427856;38.7;388;-0.000172927;
43.1648;-0.00427246;38.8;389;0.000203443;
43.2648;-0.00427246;38.9;390;-9.15491e-05;
43.3648;-0.00427246;39;391;2.03448e-05;
43.4648;-0.00427551;39.1;392;-5.59539e-05;
43.5648;-0.00427856;39.2;393;-2.03401e-05;
43.6648;-0.00428467;39.3;394;-8.64703e-05;
43.7648;-0.00429382;39.4;395;-0.000106807;
43.8648;-0.00427551;39.5;396;0.000422149;
43.9648;-0.00427856;39.6;397;-0.000300082;
44.0648;-0.00428772;39.7;398;-7.12168e-05;
44.1648;-0.00428162;39.8;399;0.000208539;
44.2648;-0.00429077;39.9;400;-0.00026957;
44.3648;-0.00428772;40;401;0.000183104;
44.4648;-0.00429077;40.1;402;-0.000122076;
44.5648;-0.00429077;40.2;403;4.57745e-05;
44.6648;-0.00427856;40.3;404;0.000213627;
44.7648;-0.00429382;40.4;405;-0.000422166;
44.8648;-0.00428467;40.5;406;0.000386558;
44.9648;-0.00429382;40.6;407;-0.000325518;
45.0648;-0.00429077;40.7;408;0.000193267;
45.1648;-0.00428467;40.8;409;4.5787e-05;
45.2648;-0.00429688;40.9;410;-0.000284838;
45.3648;-0.00428772;41;411;0.000330617;
45.4648;-0.00427856;41.1;412;2.03432e-05;
45.5648;-0.00428772;41.2;413;-0.000244148;
45.6648;-0.00429993;41.3;414;-8.64579e-05;
45.7648;-0.00429688;41.4;415;0.000167842;
45.8648;-0.00430603;41.5;416;-0.000244137;
45.9648;-0.00429382;41.6;417;0.000340781;
46.0648;-0.00429993;41.7;418;-0.000284834;
46.1648;-0.00430298;41.8;419;5.59508e-05;
46.2648;-0.00429688;41.9;420;0.000127155;
46.3648;-0.00429688;42;421;-8.13759e-05;
46.4648;-0.00429993;42.1;422;-3.55952e-05;
46.5648;-0.00429993;42.2;423;3.56029e-05;
46.6648;-0.00429077;42.3;424;0.000157668;
46.7648;-0.00431213;42.4;425;-0.000498454;
46.8648;-0.00429077;42.5;426;0.000671388;
46.9648;-0.00429688;42.6;427;-0.000432336;
47.0648;-0.00429077;42.7;428;0.000254315;
47.1648;-0.00430298;42.8;429;-0.000315349;
47.2648;-0.00429077;42.9;430;0.00038655;
47.3648;-0.00431213;43;431;-0.000574748;
47.4648;-0.00430298;43.1;432;0.00045777;
47.5648;-0.00430298;43.2;433;-0.000178022;
47.6648;-0.00429077;43.3;434;0.000254309;
47.7648;-0.00431213;43.4;435;-0.000534058;
47.8648;-0.00430908;43.5;436;0.000345875;
47.9648;-0.00431213;43.6;437;-0.000162774;
48.0648;-0.00430908;43.7;438;0.000101739;
48.1648;-0.00429382;43.8;439;0.000233959;
48.2648;-0.00430298;43.9;440;-0.000335697;
48.3648;-0.00429688;44;441;0.000269573;
48.4648;-0.00430603;44.1;442;-0.00026957;
48.5648;-0.00429382;44.2;443;0.000350954;
48.6648;-0.00430298;44.3;444;-0.000340788;
48.7648;-0.00431519;44.4;445;-7.62847e-05;
48.8648;-0.00430603;44.5;446;0.000279737;
48.9648;-0.00429688;44.6;447;2.03463e-05;
49.0648;-0.00430603;44.7;448;-0.00024414;
49.1648;-0.00432129;44.8;449;-0.000142421;
49.2648;-0.00429688;44.9;450;0.000595092;
49.3648;-0.00432129;45;451;-0.000783283;
49.4648;-0.00431213;45.1;452;0.000534055;
49.5648;-0.00429993;45.2;453;3.56154e-05;
49.6648;-0.00430908;45.3;454;-0.000279748;
49.7648;-0.00431519;45.4;455;3.56029e-05;
49.8648;-0.00431213;45.5;456;9.66372e-05;
49.9648;-0.00431824;45.6;457;-0.000167838;
50.0648;-0.00430603;45.7;458;0.000305167;
50.1648;-0.00432129;45.8;459;-0.000442507;
50.2648;-0.00431519;45.9;460;0.000330614;
50.3648;-0.00431213;46;461;-6.61271e-05;
50.4648;-0.00429993;46.1;462;0.000208551;
50.5648;-0.00432434;46.2;463;-0.000579839;
50.6648;-0.00432129;46.3;464;0.000381459;
50.7648;-0.00431824;46.4;465;-6.10296e-05;
50.8648;-0.00432434;46.5;466;-0.000137328;
50.9648;-0.00432739;46.6;467;2.5422e-05;
51.0648;-0.00431824;46.7;468;0.000183117;
51.1648;-0.00431213;46.8;469;-5.09279e-06;
51.2648;-0.00431519;46.9;470;-9.66264e-05;
51.3648;-0.00432129;47;471;-5.59601e-05;
51.4648;-0.00432434;47.1;472;5.09279e-06;
51.5648;-0.00432739;47.2;473;-4.07019e-05;
51.6648;-0.00432739;47.3;474;2.54407e-05;
51.7648;-0.00431213;47.4;475;0.000269573;
51.8648;-0.00432434;47.5;476;-0.000401809;
51.9648;-0.00432434;47.6;477;0.00019327;
52.0648;-0.00431824;47.7;478;7.12043e-05;
52.1648;-0.00432434;47.8;479;-0.0001831;
52.2648;-0.00432129;47.9;480;0.000147489;
52.3648;-0.00431519;48;481;5.59601e-05;
52.4648;-0.00432739;48.1;482;-0.000284838;
52.5648;-0.00432739;48.2;483;0.000162767;
52.6648;-0.00432434;48.3;484;1.52644e-05;
52.7648;-0.00431824;48.4;485;7.62832e-05;
52.8648;-0.0043335;48.5;486;-0.000340776;
52.9648;-0.00431824;48.6;487;0.000478109;
53.0648;-0.00433044;48.7;488;-0.000452673;
53.1648;-0.0043396;48.8;489;2.54313e-05;
53.2648;-0.00433044;48.9;490;0.000233967;
53.3648;-0.00432129;49;491;3.05133e-05;
53.4648;-0.00433044;49.1;492;-0.000244132;
53.5648;-0.00431824;49.2;493;0.000361121;
53.6648;-0.00433044;49.3;494;-0.000396722;
53.7648;-0.00432434;49.4;495;0.000295003;
53.8648;-0.0043396;49.5;496;-0.000391646;
53.9648;-0.00431824;49.6;497;0.000590003;
54.0648;-0.0043457;49.7;498;-0.000803622;
54.1648;-0.00434265;49.8;499;0.000447586;
54.2648;-0.0043335;49.9;500;4.06988e-05;
54.3648;-0.00432739;50;501;1.5252e-05;
54.4648;-0.00433655;50.1;502;-0.000208534;
54.5648;-0.00434265;50.2;503;1.52551e-05;
54.6648;-0.0043396;50.3;504;9.66481e-05;
54.7648;-0.00434265;50.4;505;-0.000111911;
54.8648;-0.00433655;50.5;506;0.000157681;
54.9648;-0.00433044;50.6;507;3.0521e-05;
55.0648;-0.0043396;50.7;508;-0.00021871;
55.1648;-0.00434265;50.8;509;7.11997e-05;
55.2648;-0.00433044;50.9;510;0.000228898;
55.3648;-0.00433655;51;511;-0.000264497;
55.4648;-0.0043335;51.1;512;0.000167851;
55.5648;-0.0043335;51.2;513;-5.59508e-05;
55.6648;-0.0043457;51.3;514;-0.000213618;
55.7648;-0.00432739;51.4;515;0.000478104;
55.8648;-0.00434875;51.5;516;-0.000645947;
55.9648;-0.0043396;51.6;517;0.000478107;
56.0648;-0.00434875;51.7;518;-0.000345873;
56.1648;-0.00433655;51.8;519;0.000361124;
56.2648;-0.00435486;51.9;520;-0.000508622;
56.3648;-0.00433655;52;521;0.000589993;
56.4648;-0.00434875;52.1;522;-0.000498447;
56.5648;-0.00434875;52.2;523;0.000203449;
56.6648;-0.0043396;52.3;524;0.00012716;
56.7648;-0.00434875;52.4;525;-0.000274666;
56.8648;-0.00435486;52.5;526;2.54375e-05;
56.9648;-0.0043396;52.6;527;0.00032043;
57.0648;-0.00436096;52.7;528;-0.000590006;
57.1648;-0.00433655;52.8;529;0.000747677;
57.2648;-0.00435181;52.9;530;-0.000635785;
57.3648;-0.00435486;53;531;0.000203454;
57.4648;-0.00434265;53.1;532;0.000208526;
57.5648;-0.00435181;53.2;533;-0.000320428;
57.6648;-0.00434265;53.3;534;0.000315345;
57.7648;-0.00434265;53.4;535;-0.000137325;
57.8648;-0.00435486;53.5;536;-0.000193271;
57.9648;-0.00434875;53.6;537;0.000254303;
58.0648;-0.0043457;53.7;538;-5.59399e-05;
58.1648;-0.00434875;53.8;539;-7.12105e-05;
58.2648;-0.00435181;53.9;540;-1.01763e-05;
58.3648;-0.00434875;54;541;8.13821e-05;
58.4648;-0.00436401;54.1;542;-0.000325522;
58.5648;-0.0043457;54.2;543;0.000523891;
58.6648;-0.00435486;54.3;544;-0.000432333;
58.7648;-0.00435791;54.4;545;0.000111889;
58.8648;-0.0043457;54.5;546;0.000228898;
58.9648;-0.00435791;54.6;547;-0.000376393;
59.0648;-0.00435486;54.7;548;0.000239066;
59.1648;-0.00434875;54.8;549;3.55921e-05;
59.2648;-0.00436096;54.9;550;-0.000284822;
59.3648;-0.00435791;55;551;0.000218704;
59.4648;-0.00435486;55.1;552;-2.03339e-05;
59.5648;-0.00434875;55.2;553;8.64548e-05;
59.6648;-0.00434875;55.3;554;-6.10312e-05;
59.7648;-0.00435181;55.4;555;-3.56092e-05;
59.8648;-0.00436096;55.5;556;-0.000132236;
59.9648;-0.00435791;55.6;557;0.000152582;
60.0648;-0.00436096;55.7;558;-0.000122056;
60.1648;-0.00435181;55.8;559;0.000213611;
60.2648;-0.00436096;55.9;560;-0.000284822;
60.3648;-0.00435181;56;561;0.000305167;
60.4648;-0.00436401;56.1;562;-0.000361121;
60.5648;-0.00434875;56.2;563;0.000452676;
60.6648;-0.00436096;56.3;564;-0.0004425;
60.7648;-0.00435791;56.4;565;0.000249222;
60.8648;-0.00436401;56.5;566;-0.000188183;
60.9648;-0.00436401;56.6;567;8.13759e-05;
61.0648;-0.00436707;56.7;568;-7.62987e-05;
61.1648;-0.00435486;56.8;569;0.000259405;
61.2648;-0.00435791;56.9;570;-0.000208548;
61.3648;-0.00435181;57;571;0.000188199;
61.4648;-0.00435791;57.1;572;-0.000193282;
61.5648;-0.00435181;57.2;573;0.000203452;
61.6648;-0.00435181;57.3;574;-9.15584e-05;
61.7648;-0.00435791;57.4;575;-9.15538e-05;
61.8648;-0.00435486;57.5;576;0.000127166;
61.9648;-0.00435791;57.6;577;-0.000111911;
62.0648;-0.00435486;57.7;578;0.000101739;
62.1648;-0.00436096;57.8;579;-0.000157681;
62.2648;-0.00437927;57.9;580;-0.000254312;
62.3648;-0.00437012;58;581;0.000361128;
62.4648;-0.00436401;58.1;582;-5.5957e-05;
62.5648;-0.00437622;58.2;583;-0.000264477;
62.6648;-0.00436096;58.3;584;0.000442507;
62.7648;-0.00436707;58.4;585;-0.000330614;
62.8648;-0.00436707;58.5;586;0.000122069;
62.9648;-0.00436096;58.6;587;9.15584e-05;
63.0648;-0.00436401;58.7;588;-0.00012716;
63.1648;-0.00437012;58.8;589;-5.59446e-05;
63.2648;-0.00437012;58.9;590;6.10296e-05;
63.3648;-0.00437012;59;591;-2.03463e-05;
63.4648;-0.00437012;59.1;592;-1.55221e-09;
63.5648;-0.00436096;59.2;593;0.000167848;
63.6648;-0.00438538;59.3;594;-0.0005544;
63.7648;-0.00436401;59.4;595;0.000706985;
63.8648;-0.00437012;59.5;596;-0.0004425;
63.9648;-0.00436707;59.6;597;0.000198352;
64.0648;-0.00437317;59.7;598;-0.000167843;
64.1648;-0.00437622;59.8;599;2.54422e-05;
64.2648;-0.00437622;59.9;600;1.52582e-05;