File: data/20200304/OCP_p31_1.txt
Time (s)	WE(1).Potential (V)	Corrected time (s)	Index	dWE(1).Potential/dt (V/s)	OCP value (V)
1.53975	0.0181458	0	1	0	0.0175775
1.63975	0.0181366	0.1	2	-9.1549e-05
1.73975	0.0181458	0.2	3	0.000183098
1.83975	0.0181427	0.3	4	-0.00019328
1.93975	0.0181396	0.4	5	1.01887e-05
2.03975	0.0181366	0.5	6	-3.0535e-05
2.13975	0.0181396	0.6	7	8.14348e-05
2.23975	0.0181396	0.7	8	-4.57838e-05
2.33975	0.0181274	0.8	9	-0.000213627
2.43975	0.0181244	0.9	10	8.64888e-05
2.53975	0.0181274	1	11	5.08502e-05
2.63975	0.0181274	1.1	12	-4.57714e-05
2.73975	0.0181244	1.2	13	-4.5759e-05
2.83975	0.0181213	1.3	14	-2.03649e-05
2.93975	0.0181244	1.4	15	8.14348e-05
3.03975	0.0181152	1.5	16	-0.00021367
3.13975	0.0181122	1.6	17	6.10513e-05
3.23975	0.0181152	1.7	18	6.10078e-05
3.33975	0.018103	1.8	19	-0.00026955
3.43975	0.0181183	1.9	20	0.000432307
3.53975	0.0180969	2	21	-0.000610364
3.63975	0.0181	2.1	22	0.000356032
3.73975	0.0181	2.2	23	-0.000106823
3.83975	0.0180939	2.3	24	-0.0001017
3.93975	0.0181	2.4	25	0.000183073
4.03975	0.0181	2.5	26	-9.15552e-05
4.13975	0.0180908	2.6	27	-0.000147509
4.23975	0.0180878	2.7	28	5.08999e-05
4.33975	0.0180786	2.8	29	-0.000162783
4.43975	0.0180817	2.9	30	0.000152594
4.53975	0.0180817	3	31	-6.61177e-05
4.63975	0.0180878	3.1	32	0.000122078
4.73975	0.0180756	3.2	33	-0.000295043
4.83975	0.0180786	3.3	34	0.000218774
4.93975	0.0180756	3.4	35	-0.000132279
5.03975	0.0180756	3.5	36	4.58024e-05
5.13975	0.0180695	3.6	37	-0.000122078
5.23975	0.0180725	3.7	38	0.000127163
5.33975	0.0180725	3.8	39	-5.59725e-05
5.43975	0.0180634	3.9	40	-0.000157667
5.53975	0.0180756	4	41	0.000330601
5.63975	0.0180603	4.1	42	-0.000452654
5.73975	0.0180603	4.2	43	0.000218712
5.83975	0.0180573	4.3	44	-0.000106785
5.93975	0.0180542	4.4	45	-2.04084e-05
6.03975	0.0180573	4.5	46	8.14162e-05
6.13975	0.0180542	4.6	47	-0.000101781
6.23975	0.0180573	4.7	48	0.000101762
6.33975	0.0180511	4.8	49	-0.00015771
6.43975	0.0180542	4.9	50	0.000137327
6.53975	0.0180573	5	51	1.86264e-08
6.63975	0.0180389	5.1	52	-0.000361179
6.73975	0.018045	5.2	53	0.000335711
6.83975	0.018042	5.3	54	-0.000188158
6.93975	0.0180389	5.4	55	-6.20882e-08
7.03975	0.0180328	5.5	56	-8.64205e-05
7.13975	0.0180389	5.6	57	0.000172897
7.23975	0.018042	5.7	58	-3.55765e-05
7.33975	0.0180328	5.8	59	-0.000183123
7.43975	0.0180359	5.9	60	0.00017294
7.53975	0.0180298	6	61	-0.000178025
7.63975	0.018042	6.1	62	0.000305213
7.73975	0.0180298	6.2	63	-0.000386611
7.83975	0.0180389	6.3	64	0.000350978
7.93975	0.0180267	6.4	65	-0.000371293
8.03975	0.0180298	6.5	66	0.000228838
8.13975	0.0180176	6.6	67	-0.000300022
8.23975	0.0180328	6.7	68	0.000432326
8.33975	0.0180237	6.8	69	-0.000386579
8.43975	0.0180298	6.9	70	0.000269574
8.53975	0.0180145	7	71	-0.000381457
8.63975	0.0180115	7.1	72	0.000142443
8.73975	0.0180267	7.2	73	0.000264452
8.83975	0.0180084	7.3	74	-0.000523918
8.93975	0.0180298	7.4	75	0.000656141
9.03975	0.0180054	7.5	76	-0.000757829
9.13975	0.0180084	7.6	77	0.000411955
9.23975	0.0180023	7.7	78	-0.000228851
9.33975	0.0180054	7.8	79	0.000137314
9.43975	0.0180054	7.9	80	-5.59414e-05
9.53975	0.0179993	8	81	-0.000101738
9.63975	0.0179962	8.1	82	1.52985e-05
9.73975	0.0179993	8.2	83	7.1153e-05
9.83975	0.0179962	8.3	84	-0.000101669
9.93975	0.0179871	8.4	85	-0.000122096
10.0397	0.0179993	8.5	86	0.000320431
10.1397	0.0179901	8.6	87	-0.000340746
10.2397	0.0179871	8.7	88	9.15552e-05
10.3397	0.0179901	8.8	89	6.10265e-05
10.4397	0.0179901	8.9	90	-4.57714e-05
10.5397	0.017984	9	91	-0.000101738
10.6397	0.0179901	9.1	92	0.000183135
10.7397	0.017981	9.2	93	-0.000259404
10.8397	0.0179749	9.3	94	1.52302e-05
10.9397	0.017984	9.4	95	0.000208542
11.0397	0.017981	9.5	96	-0.000183067
11.1397	0.0179749	9.6	97	-4.58211e-05
11.2397	0.0179779	9.7	98	0.00011698
11.3397	0.01796875	9.8	99	-0.000223797
11.4397	0.01796875	9.9	100	0.000116999
11.5397	0.0179626	10	101	-0.000142418
11.6397	0.0179657	10.1	102	0.000127163
11.7397	0.01796875	10.2	103	-4.34617e-08
11.8397	0.0179626	10.3	104	-0.000137302
11.9397	0.01796875	10.4	105	0.000193262
12.0397	0.0179718	10.5	106	-3.55579e-05
12.1397	0.0179596	10.6	107	-0.000239077
12.2397	0.0179657	10.7	108	0.000264502
12.3397	0.01796875	10.8	109	-5.59911e-05
12.4397	0.0179657	10.9	110	-7.1153e-05
12.5397	0.0179565	11	111	-0.000122096
12.6397	0.0179596	11.1	112	0.000152594
12.7397	0.0179626	11.2	113	-1.01887e-05
12.8397	0.0179535	11.3	114	-0.00019328
12.9397	0.0179565	11.4	115	0.000172978
13.0397	0.0179596	11.5	116	-1.01949e-05
13.1397	0.0179596	11.6	117	-2.54251e-05
13.2397	0.0179504	11.7	118	-0.000157667
13.3397	0.0179535	11.8	119	0.000162721
13.4397	0.0179382	11.9	120	-0.000345831
13.5397	0.0179474	12	121	0.000356032
13.6397	0.0179504	12.1	122	-0.000101719
13.7397	0.0179504	12.2	123	-5.10986e-06
13.8397	0.0179443	12.3	124	-0.000101738
13.9397	0.0179474	12.4	125	0.00012715
14.0397	0.0179352	12.5	126	-0.000279726
14.1397	0.0179352	12.6	127	0.000152563
14.2397	0.0179382	12.7	128	1.52364e-05
14.3397	0.0179443	12.8	129	7.63374e-05
14.4397	0.0179352	12.9	130	-0.000228888
14.5397	0.0179382	13	131	0.000183067
14.6397	0.0179291	13.1	132	-0.000233923
14.7397	0.0179291	13.2	133	0.000116968
14.8397	0.0179382	13.3	134	0.00013732
14.9397	0.017926	13.4	135	-0.000330557
15.0397	0.0179291	13.5	136	0.000228857
15.1397	0.0179321	13.6	137	-2.03587e-05
15.2397	0.0179321	13.7	138	-2.54437e-05
15.3397	0.017926	13.8	139	-0.0001017
15.4397	0.017923	13.9	140	1.52364e-05
15.5397	0.0179199	14	141	-4.06429e-05
15.6397	0.0179199	14.1	142	2.53941e-05
15.7397	0.017923	14.2	143	4.57528e-05
15.8397	0.0179291	14.3	144	7.63374e-05
15.9397	0.017926	14.4	145	-0.00011698
16.0397	0.017926	14.5	146	5.59601e-05
16.1397	0.0179047	14.6	147	-0.00040181
16.2397	0.0179169	14.7	148	0.000472975
16.3397	0.0179108	14.8	149	-0.000325479
16.4397	0.0179138	14.9	150	0.00016783
16.5397	0.0179077	15	151	-0.000167849
16.6397	0.0179016	15.1	152	-3.05101e-05
16.7397	0.0179077	15.2	153	0.000162745
16.8397	0.0179047	15.3	154	-0.000147466
16.9397	0.0179016	15.4	155	-6.20882e-08
17.0397	0.0179047	15.5	156	8.14162e-05
17.1397	0.0179077	15.6	157	1.01266e-05
17.2397	0.0178955	15.7	158	-0.00024916
17.3397	0.0179077	15.8	159	0.000376347
17.4397	0.0179016	15.9	160	-0.000294987
17.5397	0.0179016	16	161	0.00011187
17.6397	0.0178864	16.1	162	-0.000300103
17.7397	0.0178955	16.2	163	0.000345893
17.8397	0.0178955	16.3	164	-0.000157667
17.9397	0.0178955	16.4	165	3.0535e-05
18.0397	0.0178864	16.5	166	-0.000167874
18.1397	0.0178864	16.6	167	0.000106804
18.2397	0.0178894	16.7	168	2.54437e-05
18.3397	0.0178864	16.8	169	-9.16049e-05
18.4397	0.0178894	16.9	170	0.000101762
18.5397	0.0178833	17	171	-0.00015771
18.6397	0.0178864	17.1	172	0.000137327
18.7397	0.0178925	17.2	173	5.59476e-05
18.8397	0.0178864	17.3	174	-0.000172928
18.9397	0.0178833	17.4	175	3.56013e-05
19.0397	0.0178833	17.5	176	1.52551e-05
19.1397	0.0178802	17.6	177	-6.60991e-05
19.2397	0.0178741	17.7	178	-7.62939e-05
19.3397	0.0178741	17.8	179	6.10202e-05
19.4397	0.0178802	17.9	180	9.15552e-05
19.5397	0.0178772	18	181	-0.000127163
19.6397	0.017868	18.1	182	-0.000111864
19.7397	0.0178833	18.2	183	0.000376366
19.8397	0.0178711	18.3	184	-0.000432351
19.9397	0.017868	18.4	185	0.000137339
20.0397	0.0178772	18.5	186	0.000162745
20.1397	0.0178741	18.6	187	-0.000172891
20.2397	0.0178589	18.7	188	-0.000213658
20.3397	0.0178619	18.8	189	0.000223772
20.4397	0.0178619	18.9	190	-8.64329e-05
20.5397	0.0178589	19	191	-4.57528e-05
20.6397	0.0178619	19.1	192	9.14993e-05
20.7397	0.0178619	19.2	193	-4.57403e-05
20.8397	0.0178711	19.3	194	0.000178013
20.9397	0.0178467	19.4	195	-0.000554416
21.0397	0.0178741	19.5	196	0.000818924
21.1397	0.0178558	19.6	197	-0.00073757
21.2397	0.0178589	19.7	198	0.000361161
21.3397	0.0178589	19.8	199	-9.6665e-05
21.4397	0.0178467	19.9	200	-0.000213645
21.5397	0.0178528	20	201	0.000254357
21.6397	0.0178528	20.1	202	-0.000111914
21.7397	0.0178528	20.2	203	2.03463e-05
21.8397	0.0178467	20.3	204	-0.000111908
21.9397	0.0178528	20.4	205	0.000183135
22.0397	0.0178497	20.5	206	-0.000147497
22.1397	0.0178528	20.6	207	0.000111889
22.2397	0.0178375	20.7	208	-0.000325516
22.3397	0.0178528	20.8	209	0.000467934
22.4397	0.0178467	20.9	210	-0.000340789
22.5397	0.0178375	21	211	-4.57466e-05
22.6397	0.0178406	21.1	212	0.000142381
22.7397	0.0178406	21.2	213	-6.61301e-05
22.8397	0.0178406	21.3	214	1.01576e-05
22.9397	0.0178345	21.4	215	-0.00011187
23.0397	0.0178314	21.5	216	1.52364e-05
23.1397	0.0178406	21.6	217	0.000183123
23.2397	0.0178284	21.7	218	-0.000340777
23.3397	0.0178345	21.8	219	0.000284817
23.4397	0.0178345	21.9	220	-0.00011187
23.5397	0.0178345	22	221	2.03587e-05
23.6397	0.0178223	22.1	222	-0.000223803
23.7397	0.0178314	22.2	223	0.000310255
23.8397	0.0178284	22.3	224	-0.000203413
23.9397	0.0178284	22.4	225	6.60866e-05
24.0397	0.0178192	22.5	226	-0.000178013
24.1397	0.0178253	22.6	227	0.000218693
24.2397	0.0178223	22.7	228	-0.00015766
24.3397	0.0178192	22.8	229	1.24176e-08
24.4397	0.0178223	22.9	230	8.13727e-05
24.5397	0.0178192	23	231	-0.0001017
24.6397	0.0178223	23.1	232	0.000101713
24.7397	0.0178253	23.2	233	1.01576e-05
24.8397	0.0178162	23.3	234	-0.00019328
24.9397	0.0178223	23.4	235	0.000228907
25.0397	0.0178131	23.5	236	-0.000269574
25.1397	0.0178101	23.6	237	7.11592e-05
25.2397	0.0178101	23.7	238	5.09123e-06
25.3397	0.017804	23.8	239	-0.000122047
25.4397	0.0178101	23.9	240	0.000183073
25.5397	0.017807	24	241	-0.000147484
25.6397	0.017804	24.1	242	1.24176e-08
25.7397	0.0178131	24.2	243	0.00019328
25.8397	0.017807	24.3	244	-0.000228907
25.9397	0.0178009	24.4	245	-1.017e-05
26.0397	0.0178009	24.5	246	5.08812e-05
26.1397	0.0177979	24.6	247	-7.62691e-05
26.2397	0.0178009	24.7	248	9.14993e-05
26.3397	0.0178009	24.8	249	-4.57403e-05
26.4397	0.017804	24.9	250	6.61549e-05
26.5397	0.0177917	25	251	-0.000259423
26.6397	0.017804	25.1	252	0.000376409
26.7397	0.0177948	25.2	253	-0.000350984
26.8397	0.0177856	25.3	254	-2.03401e-05
26.9397	0.0177979	25.4	255	0.000300122
27.0397	0.0177887	25.5	256	-0.000340802
27.1397	0.0177887	25.6	257	0.000147528
27.2397	0.0177826	25.7	258	-0.000142412
27.3397	0.0177856	25.8	259	0.000127119
27.4397	0.0177856	25.9	260	-5.59166e-05
27.5397	0.0177887	26	261	6.61549e-05
27.6397	0.0177917	26.1	262	2.03215e-05
27.7397	0.0177887	26.2	263	-8.13541e-05
27.8397	0.0177887	26.3	264	4.57838e-05
27.9397	0.0177826	26.4	265	-0.000122065
28.0397	0.0177765	26.5	266	-4.07174e-05
28.1397	0.0177795	26.6	267	0.000106804
28.2397	0.0177795	26.7	268	-5.59601e-05
28.3397	0.0177795	26.8	269	1.01576e-05
28.4397	0.0177734	26.9	270	-0.00011187
28.5397	0.0177673	27	271	-4.06926e-05
28.6397	0.0177704	27.1	272	0.000106779
28.7397	0.0177704	27.2	273	-5.59166e-05
28.8397	0.0177765	27.3	274	0.000122084
28.9397	0.0177704	27.4	275	-0.000183129
29.0397	0.0177704	27.5	276	9.15738e-05
29.1397	0.0177673	27.6	277	-7.62691e-05
29.2397	0.0177704	27.7	278	9.14993e-05
29.3397	0.0177704	27.8	279	-4.57403e-05
29.4397	0.0177704	27.9	280	1.01762e-05
29.5397	0.0177673	28	281	-5.59228e-05
29.6397	0.0177765	28.1	282	0.000203407
29.7397	0.0177612	28.2	283	-0.000396712
29.8397	0.0177612	28.3	284	0.000208535
29.9397	0.0177673	28.4	285	6.10451e-05
30.0397	0.0177582	28.5	286	-0.000239064
30.1397	0.0177612	28.6	287	0.00018311
30.2397	0.0177612	28.7	288	-6.61177e-05
30.3397	0.0177582	28.8	289	-4.5759e-05
30.4397	0.0177673	28.9	290	0.00020345
30.5397	0.0177612	29	291	-0.000228907
30.6397	0.017746	29.1	292	-0.000178007
30.7397	0.0177673	29.2	293	0.000549325
30.8397	0.0177551	29.3	294	-0.000523925
30.9397	0.0177673	29.4	295	0.000437473
31.0397	0.0177521	29.5	296	-0.000462886
31.1397	0.0177643	29.6	297	0.000442471
31.2397	0.0177582	29.7	298	-0.000305132
31.3397	0.0177582	29.8	299	0.000111901
31.4397	0.0177582	29.9	300	-2.03277e-05
31.5397	0.0177521	30	301	-0.000111895
31.6397	0.0177521	30.1	302	7.11903e-05
31.7397	0.017749	30.2	303	-7.63312e-05
31.8397	0.0177521	30.3	304	9.15862e-05
31.9397	0.017749	30.4	305	-0.000101781
32.0397	0.017749	30.5	306	4.57838e-05
32.1397	0.017749	30.6	307	-1.01887e-05
32.2397	0.0177521	30.7	308	5.59663e-05
32.3397	0.017746	30.8	309	-0.000147534
32.4397	0.0177551	30.9	310	0.000249234
32.5397	0.0177429	31	311	-0.000350904
32.6397	0.017746	31.1	312	0.000228857
32.7397	0.017746	31.2	313	-7.62877e-05
32.8397	0.0177429	31.3	314	-4.5759e-05
32.9397	0.0177429	31.4	315	3.56138e-05
33.0397	0.017749	31.5	316	0.0001017
33.1397	0.0177368	31.6	317	-0.000294981
33.2397	0.0177338	31.7	318	0.000106754
33.3397	0.0177338	31.8	319	-5.07881e-06
33.4397	0.0177429	31.9	320	0.000157698
33.5397	0.0177368	32	321	-0.000218712
33.6397	0.0177216	32.1	322	-0.000178032
33.7397	0.0177368	32.2	323	0.000437411
33.8397	0.0177338	32.3	324	-0.000284867
33.9397	0.0177338	32.4	325	8.64702e-05
34.0397	0.0177368	32.5	326	4.579e-05
34.1397	0.0177399	32.6	327	2.03028e-05
34.2397	0.0177338	32.7	328	-0.000137302
34.3397	0.0177307	32.8	329	2.54251e-05
34.4397	0.0177307	32.9	330	1.52551e-05
34.5397	0.0177246	33	331	-0.000122078
34.6397	0.0177246	33.1	332	7.12275e-05
34.7397	0.0177216	33.2	333	-7.62691e-05
34.8397	0.0177216	33.3	334	3.55703e-05
34.9397	0.0177246	33.4	335	4.57528e-05
35.0397	0.0177216	33.5	336	-9.14993e-05
35.1397	0.0177246	33.6	337	0.000101669
35.2397	0.0177216	33.7	338	-0.000101669
35.3397	0.0177277	33.8	339	0.000157648
35.4397	0.0177246	33.9	340	-0.000137333
35.5397	0.0177216	34	341	4.34617e-08
35.6397	0.0177246	34.1	342	8.13231e-05
35.7397	0.0177124	34.2	343	-0.000269506
35.8397	0.0177094	34.3	344	9.6603e-05
35.9397	0.0177063	34.4	345	-6.09892e-05
36.0397	0.0177216	34.5	346	0.000305138
36.1397	0.0177185	34.6	347	-0.000244174
36.2397	0.0177094	34.7	348	-8.13665e-05
36.3397	0.0177155	34.8	349	0.00020856
36.4397	0.0177185	34.9	350	-4.58086e-05
36.5397	0.0177124	35	351	-0.000127126
36.6397	0.0177063	35.1	352	-3.05225e-05
36.7397	0.0177155	35.2	353	0.000218687
36.8397	0.0176971	35.3	354	-0.000462818
36.9397	0.0177032	35.4	355	0.000356007
37.0397	0.0177002	35.5	356	-0.000188177
37.1397	0.0177032	35.6	357	0.00011187
37.2397	0.0177124	35.7	358	0.000122103
37.3397	0.0176971	35.8	359	-0.000376378
37.4397	0.0176941	35.9	360	0.000152575
37.5397	0.0177124	36	361	0.000320487
37.6397	0.0177002	36.1	362	-0.000447618
37.7397	0.0176971	36.2	363	0.000147528
37.8397	0.0176971	36.3	364	-5.07881e-06
37.9397	0.0177002	36.4	365	4.57714e-05
38.0397	0.0176971	36.5	366	-9.15304e-05
38.1397	0.017691	36.6	367	-6.61239e-05
38.2397	0.0176971	36.7	368	0.000172928
38.3397	0.0176941	36.8	369	-0.000147509
38.4397	0.0177063	36.9	370	0.000279788
38.5397	0.0177002	37	371	-0.000264533
38.6397	0.0177002	37.1	372	0.000111914
38.7397	0.0176941	37.2	373	-0.000132254
38.8397	0.0176849	37.3	374	-9.66092e-05
38.9397	0.017691	37.4	375	0.000198359
39.0397	0.0176971	37.5	376	1.01638e-05
39.1397	0.017691	37.6	377	-0.000162745
39.2397	0.017691	37.7	378	9.15366e-05
39.3397	0.017691	37.8	379	-2.03525e-05
39.4397	0.017688	37.9	380	-5.59849e-05
39.5397	0.0176941	38	381	0.000147515
39.6397	0.0176849	38.1	382	-0.000249203
39.7397	0.017688	38.2	383	0.000183073
39.8397	0.017691	38.3	384	-1.01514e-05
39.9397	0.017688	38.4	385	-8.14348e-05
40.0397	0.017688	38.5	386	4.57838e-05
40.1397	0.017688	38.6	387	-1.01887e-05
40.2397	0.017691	38.7	388	5.59663e-05
40.3397	0.017691	38.8	389	-3.56262e-05
40.4397	0.0176819	38.9	390	-0.000157667
40.5397	0.0176819	39	391	0.000106835
40.6397	0.0176819	39.1	392	-3.05039e-05
40.7397	0.0176727	39.2	393	-0.000167874
40.8397	0.017691	39.3	394	0.000442527
40.9397	0.017691	39.4	395	-0.000244168
41.0397	0.0176758	39.5	396	-0.000218712
41.1397	0.0176819	39.6	397	0.000289921
41.2397	0.0176849	39.7	398	-6.61177e-05
41.3397	0.0176727	39.8	399	-0.00023907
41.4397	0.0176819	39.9	400	0.000320462
41.5397	0.0176758	40	401	-0.000259404
41.6397	0.0176758	40.1	402	0.000101713
41.7397	0.0176758	40.2	403	-2.03525e-05
41.8397	0.0176788	40.3	404	5.59228e-05
41.9397	0.0176727	40.4	405	-0.000147478
42.0397	0.017691	40.5	406	0.000417077
42.1397	0.0176758	40.6	407	-0.000513736
42.2397	0.0176819	40.7	408	0.00035096
42.3397	0.0176788	40.8	409	-0.000178025
42.4397	0.0176849	40.9	410	0.00016788
42.5397	0.0176819	41	411	-0.000137327
42.6397	0.0176727	41.1	412	-0.000111926
42.7397	0.0176819	41.2	413	0.00026452
42.8397	0.0176758	41.3	414	-0.000249234
42.9397	0.0176788	41.4	415	0.000157642
43.0397	0.0176666	41.5	416	-0.000279682
43.1397	0.0176727	41.6	417	0.00026444
43.2397	0.0176819	41.7	418	5.59849e-05
43.3397	0.0176697	41.8	419	-0.000310279
43.4397	0.0176727	41.9	420	0.000228869
43.5397	0.0176758	42	421	-2.03277e-05
43.6397	0.0176666	42.1	422	-0.000193293
43.7397	0.0176666	42.2	423	0.000117011
43.8397	0.0176758	42.3	424	0.000137333
43.9397	0.0176727	42.4	425	-0.000162808
44.0397	0.0176727	42.5	426	6.61239e-05
44.1397	0.0176636	42.6	427	-0.000178025
44.2397	0.0176697	42.7	428	0.000218737
44.3397	0.0176605	42.8	429	-0.000269574
44.4397	0.0176697	42.9	430	0.000294975
44.5397	0.0176697	43	431	-0.000137314
44.6397	0.0176544	43.1	432	-0.000249228
44.7397	0.0176666	43.2	433	0.000401835
44.8397	0.0176697	43.3	434	-0.000137339
44.9397	0.0176575	43.4	435	-0.000218724
45.0397	0.0176697	43.5	436	0.000376391
45.1397	0.0176666	43.6	437	-0.000239039
45.2397	0.0176605	43.7	438	-3.56013e-05
45.3397	0.0176605	43.8	439	6.10202e-05
45.4397	0.0176666	43.9	440	9.15552e-05
45.5397	0.0176636	44	441	-0.000127163
45.6397	0.0176514	44.1	442	-0.000167793
45.7397	0.0176544	44.2	443	0.000188164
45.8397	0.0176575	44.3	444	-2.03587e-05
45.9397	0.0176575	44.4	445	-2.54437e-05
46.0397	0.0176575	44.5	446	1.01576e-05
46.1397	0.0176544	44.6	447	-5.59414e-05
46.2397	0.0176544	44.7	448	3.56013e-05
46.3397	0.0176544	44.8	449	-1.017e-05
46.4397	0.0176483	44.9	450	-0.000111908
46.5397	0.0176483	45	451	7.12275e-05
46.6397	0.0176483	45.1	452	-2.03401e-05
46.7397	0.0176422	45.2	453	-0.000111901
46.8397	0.0176514	45.3	454	0.00023907
46.9397	0.0176483	45.4	455	-0.000183129
47.0397	0.0176605	45.5	456	0.000289964
47.1397	0.0176453	45.6	457	-0.00043237
47.2397	0.0176392	45.7	458	0.000106798
47.3397	0.0176422	45.8	459	7.62877e-05
47.4397	0.0176422	45.9	460	-5.59601e-05
47.5397	0.0176422	46	461	1.01576e-05
47.6397	0.0176453	46.1	462	5.59663e-05
47.7397	0.0176392	46.2	463	-0.000147534
47.8397	0.0176453	46.3	464	0.000193305
47.9397	0.0176392	46.4	465	-0.000203482
48.0397	0.0176392	46.5	466	9.15676e-05
48.1397	0.0176422	46.6	467	3.55827e-05
48.2397	0.0176422	46.7	468	-3.56138e-05
48.3397	0.0176422	46.8	469	1.01576e-05
48.4397	0.0176361	46.9	470	-0.00011187
48.5397	0.0176453	47	471	0.000239052
48.6397	0.0176392	47.1	472	-0.000239077
48.7397	0.0176361	47.2	473	4.58086e-05
48.8397	0.0176361	47.3	474	1.52675e-05
48.9397	0.0176361	47.4	475	-1.01576e-05
49.0397	0.01763	47.5	476	-0.000111895
49.1397	0.0176453	47.6	477	0.000350935
49.2397	0.0176361	47.7	478	-0.000366208
49.3397	0.0176331	47.8	479	0.000101719
49.4397	0.0176392	47.9	480	0.000117018
49.5397	0.0176361	48	481	-0.000137327
49.6397	0.0176331	48.1	482	-1.86264e-08
49.7397	0.0176331	48.2	483	2.54561e-05
49.8397	0.0176361	48.3	484	4.58086e-05
49.9397	0.0176361	48.4	485	-3.56076e-05
50.0397	0.01763	48.5	486	-0.000101719
50.1397	0.017627	48.6	487	1.52116e-05
50.2397	0.0176239	48.7	488	-4.06677e-05
50.3397	0.0176239	48.8	489	2.54251e-05
50.4397	0.0176239	48.9	490	-1.017e-05
50.5397	0.0176239	49	491	0
50.6397	0.0176208	49.1	492	-5.5929e-05
50.7397	0.01763	49.2	493	0.00020345
50.8397	0.017627	49.3	494	-0.000172978
50.9397	0.0176331	49.4	495	0.000178032
51.0397	0.0176239	49.5	496	-0.000249203
51.1397	0.01763	49.6	497	0.000239052
51.2397	0.0176239	49.7	498	-0.000213652
51.3397	0.017627	49.8	499	0.000147497
51.4397	0.017627	49.9	500	-5.59601e-05
51.5397	0.0176147	50	501	-0.000213608
51.6397	0.0176239	50.1	502	0.00031023
51.7397	0.0176178	50.2	503	-0.000259392
51.8397	0.017627	50.3	504	0.000269581
51.9397	0.0176208	50.4	505	-0.000239039
52.0397	0.0176208	50.5	506	0.000101731
52.1397	0.0176239	50.6	507	3.56013e-05
52.2397	0.0176178	50.7	508	-0.000147509
52.3397	0.017627	50.8	509	0.000249234
52.4397	0.0176117	50.9	510	-0.000406926
52.5397	0.0176178	51	511	0.000320431
52.6397	0.0176025	51.1	512	-0.000401797
52.7397	0.0176147	51.2	513	0.000422187
52.8397	0.0176147	51.3	514	-0.000193311
52.9397	0.0176056	51.4	515	-0.00012715
53.0397	0.0176086	51.5	516	0.000162764
53.1397	0.0176056	51.6	517	-0.000122047
53.2397	0.0176025	51.7	518	-1.01949e-05
53.3397	0.0176147	51.8	519	0.000249272
53.4397	0.0176117	51.9	520	-0.000208604
53.5397	0.0176117	52	521	7.63001e-05
53.6397	0.0176056	52.1	522	-0.000122047
53.7397	0.0176025	52.2	523	1.52364e-05
53.8397	0.0176117	52.3	524	0.000183123
53.9397	0.0176025	52.4	525	-0.000284848
54.0397	0.0176117	52.5	526	0.000305182
54.1397	0.0176117	52.6	527	-0.000137351
54.2397	0.0176025	52.7	528	-0.000137333
54.3397	0.0176086	52.8	529	0.000218737
54.4397	0.0176056	52.9	530	-0.000157667
54.5397	0.0176025	53	531	-1.86264e-08
54.6397	0.0176025	53.1	532	2.54561e-05
54.7397	0.0176056	53.2	533	4.58086e-05
54.8397	0.0175964	53.3	534	-0.000203494
54.9397	0.0176025	53.4	535	0.000228888
55.0397	0.0176025	53.5	536	-0.000101713
55.1397	0.0175964	53.6	537	-9.15552e-05
55.2397	0.0175934	53.7	538	1.52551e-05
55.3397	0.0175995	53.8	539	0.000127163
55.4397	0.0175995	53.9	540	-8.13976e-05
55.5397	0.0175934	54	541	-9.15676e-05
55.6397	0.0176056	54.1	542	0.000295037
55.7397	0.0176025	54.2	543	-0.00021873
55.8397	0.0176025	54.3	544	7.63188e-05
55.9397	0.0175934	54.4	545	-0.000178007
56.0397	0.0176056	54.5	546	0.000330613
56.1397	0.0175934	54.6	547	-0.000396737
56.2397	0.0176056	54.7	548	0.000406926
56.3397	0.0175995	54.8	549	-0.000295006
56.4397	0.0175903	54.9	550	-5.59538e-05
56.5397	0.0175995	55	551	0.000254326
56.6397	0.0175934	55.1	552	-0.000249253
56.7397	0.0175873	55.2	553	-1.017e-05
56.8397	0.0175964	55.3	554	0.000218718
56.9397	0.0175903	55.4	555	-0.000239039
57.0397	0.0175873	55.5	556	4.57528e-05
57.1397	0.0175842	55.6	557	-4.06429e-05
57.2397	0.0175873	55.7	558	8.13231e-05
57.3397	0.0175842	55.8	559	-0.000101669
57.4397	0.0175873	55.9	560	0.000101669
57.5397	0.0175812	56	561	-0.000157648
57.6397	0.0175842	56.1	562	0.000137333
57.7397	0.0175873	56.2	563	-4.34617e-08
57.8397	0.0175934	56.3	564	8.65136e-05
57.9397	0.0175903	56.4	565	-0.00011698
58.0397	0.0175781	56.5	566	-0.000167855
58.1397	0.0175781	56.6	567	0.000132248
58.2397	0.0175812	56.7	568	1.52364e-05
58.3397	0.0175781	56.8	569	-9.15428e-05
58.4397	0.0175842	56.9	570	0.000157679
58.5397	0.0175751	57	571	-0.000249234
58.6397	0.0175751	57.1	572	0.000127181
58.7397	0.0175812	57.2	573	8.13541e-05
58.8397	0.017569	57.3	574	-0.000294981
58.9397	0.0175781	57.4	575	0.00033057
59.0397	0.0175842	57.5	576	-3.55765e-05
59.1397	0.017572	57.6	577	-0.000264527
59.2397	0.0175812	57.7	578	0.000330632
59.3397	0.0175751	57.8	579	-0.000259386
59.4397	0.0175781	57.9	580	0.00015766
59.5397	0.017572	58	581	-0.000167849
59.6397	0.0175659	58.1	582	-3.05101e-05
59.7397	0.017569	58.2	583	0.000106816
59.8397	0.0175751	58.3	584	5.59352e-05
59.9397	0.0175812	58.4	585	5.08502e-05
60.0397	0.017569	58.5	586	-0.000274635
60.1397	0.017569	58.6	587	0.000162733
60.2397	0.017569	58.7	588	-4.06926e-05
60.3397	0.0175659	58.8	589	-5.59849e-05
60.4397	0.0175751	58.9	590	0.000203494
60.5397	0.0175629	59	591	-0.000340796
60.6397	0.0175598	59.1	592	0.000117011
60.7397	0.0175629	59.2	593	5.08502e-05
60.8397	0.0175629	59.3	594	-4.57714e-05
60.9397	0.0175629	59.4	595	1.017e-05
61.0397	0.017572	59.5	596	0.000167837
61.1397	0.0175629	59.6	597	-0.000274628
61.2397	0.0175629	59.7	598	0.000137314
61.3397	0.0175568	59.8	599	-0.000142424
61.4397	0.0175629	59.9	600	0.000183135