File: data/20200304/OCP_p28_1.txt
Time (s)	WE(1).Potential (V)	Corrected time (s)	Index	dWE(1).Potential/dt (V/s)	OCP value (V)
1.38175	-0.0205536	0	1	0	-0.020597
1.48175	-0.0205536	0.1	2	0
1.58175	-0.0205597	0.2	3	-9.15676e-05
1.68175	-0.0205597	0.3	4	7.12275e-05
1.78175	-0.0205475	0.4	5	0.000203475
1.88175	-0.0205597	0.5	6	-0.000366264
1.98175	-0.0205566	0.6	7	0.00023912
2.08175	-0.0205505	0.7	8	3.55579e-05
2.18175	-0.0205597	0.8	9	-0.000228876
2.28175	-0.0205597	0.9	10	0.000127169
2.38175	-0.0205566	1	11	2.54686e-05
2.48175	-0.0205658	1.1	12	-0.000203494
2.58175	-0.0205566	1.2	13	0.000284867
2.68175	-0.0205688	1.3	14	-0.000361142
2.78175	-0.020575	1.4	15	6.10327e-05
2.88175	-0.0205627	1.5	16	0.00025435
2.98175	-0.0205597	1.6	17	-0.000106866
3.08175	-0.0205688	1.7	18	-0.000162714
3.18175	-0.0205719	1.8	19	6.10389e-05
3.28175	-0.0205658	1.9	20	0.000116955
3.38175	-0.0205688	2	21	-0.000137314
3.48175	-0.0205597	2.1	22	0.000223778
3.58175	-0.0205597	2.2	23	-0.000116962
3.68175	-0.0205658	2.3	24	-8.13852e-05
3.78175	-0.0205627	2.4	25	0.000127163
3.88175	-0.0205658	2.5	26	-0.000111951
3.98175	-0.0205719	2.6	27	-6.60742e-05
4.08175	-0.0205719	2.7	28	6.10389e-05
4.18175	-0.0205719	2.8	29	-2.03277e-05
4.28175	-0.020575	2.9	30	-5.59663e-05
4.38175	-0.020575	3	31	3.56262e-05
4.48175	-0.0205627	3.1	32	0.000213645
4.58175	-0.020575	3.2	33	-0.000366264
4.68175	-0.0205719	3.3	34	0.00023912
4.78175	-0.0205719	3.4	35	-7.63001e-05
4.88175	-0.0205811	3.5	36	-0.000157698
4.98175	-0.020575	3.6	37	0.000218712
5.08175	-0.020575	3.7	38	-0.000101713
5.18175	-0.0205841	3.8	39	-0.000147484
5.28175	-0.0205719	3.9	40	0.000330613
5.38175	-0.0205688	4	41	-0.000116993
5.48175	-0.0205719	4.1	42	-5.08378e-05
5.58175	-0.0205811	4.2	43	-0.000122103
5.68175	-0.0205688	4.3	44	0.000320449
5.78175	-0.020578	4.4	45	-0.000340777
5.88175	-0.020578	4.5	46	0.000147484
5.98175	-0.020575	4.6	47	2.54065e-05
6.08175	-0.0205963	4.7	48	-0.000427222
6.18175	-0.020578	4.8	49	0.000595096
6.28175	-0.0205658	4.9	50	-6.10885e-05
6.38175	-0.0205841	5	51	-0.000417046
6.48175	-0.020578	5.1	52	0.000366215
6.58175	-0.0205933	5.2	53	-0.000412005
6.68175	-0.0205872	5.3	54	0.000310267
6.78175	-0.0205963	5.4	55	-0.000289933
6.88175	-0.0205841	5.5	56	0.000350966
6.98175	-0.0205811	5.6	57	-0.000117011
7.08175	-0.0205872	5.7	58	-0.000106779
7.18175	-0.0205872	5.8	59	8.13852e-05
7.28175	-0.0205719	5.9	60	0.000259417
7.38175	-0.0205872	6	61	-0.000457751
7.48175	-0.0205841	6.1	62	0.000284823
7.58175	-0.0205963	6.2	63	-0.000310279
7.68175	-0.0205841	6.3	64	0.000376391
7.78175	-0.0205902	6.4	65	-0.000295018
7.88175	-0.0206024	6.5	66	-0.000111846
7.98175	-0.0205872	6.6	67	0.00040181
8.08175	-0.0205872	6.7	68	-0.000218693
8.18175	-0.0205872	6.8	69	5.0875e-05
8.28175	-0.0205963	6.9	70	-0.000167874
8.38175	-0.0205933	7	71	0.000162783
8.48175	-0.0205933	7.1	72	-6.61487e-05
8.58175	-0.0205902	7.2	73	6.60991e-05
8.68175	-0.0205963	7.3	74	-0.000147478
8.78175	-0.0205902	7.4	75	0.000193262
8.88175	-0.0206055	7.5	76	-0.000371281
8.98175	-0.0205933	7.6	77	0.000422187
9.08175	-0.0205994	7.7	78	-0.000305219
9.18175	-0.0205902	7.8	79	0.000279751
9.28175	-0.0206146	7.9	80	-0.000574719
9.38175	-0.0205811	8	81	0.000930751
9.48175	-0.0205994	8.1	82	-0.000808704
9.58175	-0.0205994	8.2	83	0.000325516
9.68175	-0.0205872	8.3	84	0.000162783
9.78175	-0.0206116	8.4	85	-0.000590036
9.88175	-0.0205994	8.5	86	0.000549331
9.98175	-0.0205963	8.6	87	-0.000167874
10.0817	-0.0205872	8.7	88	0.000172965
10.1817	-0.0205963	8.8	89	-0.00026452
10.2817	-0.0205933	8.9	90	0.000193305
10.3817	-0.0205963	9	91	-0.000122127
10.4817	-0.0206024	9.1	92	-6.60742e-05
10.5817	-0.0205963	9.2	93	0.000172897
10.6817	-0.0206024	9.3	94	-0.000203413
10.7817	-0.0206055	9.4	95	3.55765e-05
10.8817	-0.0206116	9.5	96	-9.66216e-05
10.9817	-0.0205994	9.6	97	0.000284823
11.0817	-0.0206055	9.7	98	-0.000274672
11.1817	-0.0205963	9.8	99	0.000279757
11.2817	-0.0206024	9.9	100	-0.000239039
11.3817	-0.0206024	10	101	0.000101731
11.4817	-0.0206085	10.1	102	-0.000132235
11.5817	-0.0206085	10.2	103	7.11903e-05
11.6817	-0.0206116	10.3	104	-7.63312e-05
11.7817	-0.0205963	10.4	105	0.000315352
11.8817	-0.0206055	10.5	106	-0.000356045
11.9817	-0.0206055	10.6	107	0.000157691
12.0817	-0.0206055	10.7	108	-3.05101e-05
12.1817	-0.0206024	10.8	109	5.59849e-05
12.2817	-0.0206116	10.9	110	-0.000203494
12.3817	-0.0206024	11	111	0.000284867
12.4817	-0.0206055	11.1	112	-0.000193305
12.5817	-0.0206024	11.2	113	0.000122127
12.6817	-0.0206055	11.3	114	-0.000101762
12.7817	-0.0206055	11.4	115	4.58024e-05
12.8817	-0.0206146	11.5	116	-0.000178007
12.9817	-0.0205994	11.6	117	0.000386542
13.0817	-0.0206177	11.7	118	-0.000544209
13.1817	-0.0206238	11.8	119	0.000152588
13.2817	-0.0206024	11.9	120	0.00040181
13.3817	-0.0206146	12	121	-0.000493365
13.4817	-0.0206207	12.1	122	0.000101719
13.5817	-0.0206146	12.2	123	0.000142443
13.6817	-0.0206116	12.3	124	-3.56386e-05
13.7817	-0.0206177	12.4	125	-0.000127126
13.8817	-0.0206085	12.5	126	0.000249222
13.9817	-0.0206238	12.6	127	-0.000406913
14.0817	-0.0206146	12.7	128	0.000376366
14.1817	-0.0206238	12.8	129	-0.000325497
14.2817	-0.0205994	12.9	130	0.000584889
14.3817	-0.0206146	13	131	-0.000595078
14.4817	-0.0206207	13.1	132	0.00014749
14.5817	-0.0206177	13.2	133	7.63436e-05
14.6817	-0.0206146	13.3	134	-2.48353e-08
14.7817	-0.0206055	13.4	135	0.000142412
14.8817	-0.0206055	13.5	136	-9.66216e-05
14.9817	-0.0206207	13.6	137	-0.000249222
15.0817	-0.0206207	13.7	138	0.000178025
15.1817	-0.0206177	13.8	139	5.12227e-06
15.2817	-0.0206207	13.9	140	-9.15862e-05
15.3817	-0.0206116	14	141	0.000213639
15.4817	-0.0206146	14.1	142	-0.00017294
15.5817	-0.0206177	14.2	143	1.01887e-05
15.6817	-0.0206146	14.3	144	8.13727e-05
15.7817	-0.0206177	14.4	145	-0.0001017
15.8817	-0.0206268	14.5	146	-0.000122103
15.9817	-0.0206146	14.6	147	0.000320449
16.0817	-0.0206329	14.7	148	-0.000508614
16.1817	-0.0206207	14.8	149	0.000478091
16.2817	-0.0206177	14.9	150	-0.000147447
16.3817	-0.0206177	15	151	5.07881e-06
16.4817	-0.0206207	15.1	152	-4.579e-05
16.5817	-0.0206238	15.2	153	-2.03028e-05
16.6817	-0.0206238	15.3	154	2.53941e-05
16.7817	-0.0206146	15.4	155	0.00015766
16.8817	-0.0206085	15.5	156	5.10986e-06
16.9817	-0.0206177	15.6	157	-0.000208548
17.0817	-0.0206146	15.7	158	0.00018311
17.1817	-0.0206146	15.8	159	-6.61177e-05
17.2817	-0.0206268	15.9	160	-0.000213645
17.3817	-0.0206207	16	161	0.000254313
17.4817	-0.0206299	16.1	162	-0.00027972
17.5817	-0.0206116	16.2	163	0.000462818
17.6817	-0.0206207	16.3	164	-0.000411986
17.7817	-0.0206207	16.4	165	0.000167862
17.8817	-0.0206268	16.5	166	-0.000142418
17.9817	-0.0206299	16.6	167	1.52551e-05
18.0817	-0.0206299	16.7	168	1.52551e-05
18.1817	-0.0206268	16.8	169	4.5759e-05
18.2817	-0.0206329	16.9	170	-0.000147472
18.3817	-0.0206268	17	171	0.000193243
18.4817	-0.0206238	17.1	172	-3.55765e-05
18.5817	-0.0206299	17.2	173	-0.000127194
18.6817	-0.0206299	17.3	174	8.13976e-05
18.7817	-0.0206146	17.4	175	0.000259398
18.8817	-0.0206238	17.5	176	-0.000345856
18.9817	-0.0206299	17.6	177	4.57466e-05
19.0817	-0.0206268	17.7	178	9.6634e-05
19.1817	-0.0206268	17.8	179	-5.59601e-05
19.2817	-0.0206268	17.9	180	1.01576e-05
19.3817	-0.020636	18	181	-0.000167849
19.4817	-0.020639	18.1	182	5.08999e-05
19.5817	-0.0206299	18.2	183	0.000172891
19.6817	-0.0206451	18.3	184	-0.000396712
19.7817	-0.0206329	18.4	185	0.000432351
19.8817	-0.0206299	18.5	186	-0.000137339
19.9817	-0.0206299	18.6	187	5.09123e-06
20.0817	-0.0206329	18.7	188	-4.5759e-05
20.1817	-0.0206207	18.8	189	0.000259379
20.2817	-0.020639	18.9	190	-0.000488236
20.3817	-0.0206329	19	191	0.000366184
20.4817	-0.0206268	19.1	192	-2.03587e-05
20.5817	-0.0206238	19.2	193	5.10986e-06
20.6817	-0.020636	19.3	194	-0.000239101
20.7817	-0.0206207	19.4	195	0.00043237
20.8817	-0.0206268	19.5	196	-0.000330613
20.9817	-0.020636	19.6	197	-4.579e-05
21.0817	-0.020636	19.7	198	8.64826e-05
21.1817	-0.0206299	19.8	199	8.13976e-05
21.2817	-0.0206268	19.9	200	-1.52923e-05
21.3817	-0.0206268	20	201	-1.52675e-05
21.4817	-0.0206329	20.1	202	-0.0001017
21.5817	-0.0206299	20.2	203	0.000127144
21.6817	-0.0206451	20.3	204	-0.000335686
21.7817	-0.0206268	20.4	205	0.000523863
21.8817	-0.020636	20.5	206	-0.000432332
21.9817	-0.0206207	20.6	207	0.000447606
22.0817	-0.0206329	20.7	208	-0.000432295
22.1817	-0.020639	20.8	209	8.13665e-05
22.2817	-0.0206451	20.9	210	-8.14038e-05
22.3817	-0.0206421	21	211	0.000106804
22.4817	-0.0206421	21.1	212	-5.59601e-05
22.5817	-0.0206329	21.2	213	0.000178044
22.6817	-0.020639	21.3	214	-0.000218712
22.7817	-0.020636	21.4	215	0.000157642
22.8817	-0.020636	21.5	216	-5.59166e-05
22.9817	-0.020636	21.6	217	1.01762e-05
23.0817	-0.0206329	21.7	218	5.59849e-05
23.1817	-0.0206299	21.8	219	2.03215e-05
23.2817	-0.0206268	21.9	220	3.05039e-05
23.3817	-0.0206299	22	221	-8.13727e-05
23.4817	-0.0206421	22.1	222	-0.000178044
23.5817	-0.020636	22.2	223	0.000244143
23.6817	-0.0206299	22.3	224	2.48353e-08
23.7817	-0.0206299	22.4	225	-5.0875e-05
23.8817	-0.0206451	22.5	226	-0.000259398
23.9817	-0.020639	22.6	227	0.000289927
24.0817	-0.0206329	22.7	228	-1.01825e-05
24.1817	-0.0206329	22.8	229	-5.08378e-05
24.2817	-0.020636	22.9	230	-3.562e-05
24.3817	-0.020639	23	231	-2.03028e-05
24.4817	-0.0206238	23.1	232	0.000305138
24.5817	-0.020639	23.2	233	-0.00046794
24.6817	-0.0206329	23.3	234	0.000340783
24.7817	-0.0206329	23.4	235	-0.000122047
24.8817	-0.0206329	23.5	236	2.03587e-05
24.9817	-0.020639	23.6	237	-0.000111895
25.0817	-0.020639	23.7	238	7.11903e-05
25.1817	-0.0206268	23.8	239	0.000203413
25.2817	-0.020636	23.9	240	-0.000310248
25.3817	-0.0206451	24	241	-2.03215e-05
25.4817	-0.0206299	24.1	242	0.000356026
25.5817	-0.0206451	24.2	243	-0.00048828
25.6817	-0.0206482	24.3	244	0.000172953
25.7817	-0.020636	24.4	245	0.000208517
25.8817	-0.0206329	24.5	246	-9.65843e-05
25.9817	-0.020639	24.6	247	-0.000106829
26.0817	-0.020639	24.7	248	8.13665e-05
26.1817	-0.020636	24.8	249	3.55765e-05
26.2817	-0.0206421	24.9	250	-0.000147478
26.3817	-0.0206329	25	251	0.00024924
26.4817	-0.0206299	25.1	252	-7.12213e-05
26.5817	-0.020636	25.2	253	-0.000116987
26.6817	-0.020636	25.3	254	8.13976e-05
26.7817	-0.020636	25.4	255	-2.03401e-05
26.8817	-0.0206329	25.5	256	5.59849e-05
26.9817	-0.0206482	25.6	257	-0.000315352
27.0817	-0.020639	25.7	258	0.000356045
27.1817	-0.020639	25.8	259	-0.000157691
27.2817	-0.0206421	25.9	260	-2.54686e-05
27.3817	-0.0206299	26	261	0.000259423
27.4817	-0.0206482	26.1	262	-0.000488267
27.5817	-0.0206421	26.2	263	0.000366184
27.6817	-0.020639	26.3	264	-7.62691e-05
27.7817	-0.0206451	26.4	265	-0.000127194
27.8817	-0.0206299	26.5	266	0.000361142
27.9817	-0.0206451	26.6	267	-0.00047811
28.0817	-0.0206421	26.7	268	0.000284811
28.1817	-0.020636	26.8	269	2.54313e-05
28.2817	-0.0206299	26.9	270	5.08875e-05
28.3817	-0.020639	27	271	-0.000218712
28.4817	-0.0206421	27.1	272	7.11592e-05
28.5817	-0.0206451	27.2	273	-5.08378e-05
28.6817	-0.0206329	27.3	274	0.00024924
28.7817	-0.0206482	27.4	275	-0.00043232
28.8817	-0.020639	27.5	276	0.000386561
28.9817	-0.020639	27.6	277	-0.000157691
29.0817	-0.0206451	27.7	278	-8.13976e-05
29.1817	-0.020636	27.8	279	0.000239058
29.2817	-0.0206421	27.9	280	-0.000239046
29.3817	-0.0206482	28	281	-1.01576e-05
29.4817	-0.0206421	28.1	282	0.000162727
29.5817	-0.0206451	28.2	283	-0.000147484
29.6817	-0.020639	28.3	284	0.000167849
29.7817	-0.020636	28.4	285	-2.54686e-05
29.8817	-0.0206421	28.5	286	-0.000127132
29.9817	-0.020639	28.6	287	0.000137333
30.0817	-0.020636	28.7	288	-4.34617e-08
30.1817	-0.0206421	28.8	289	-0.000137302
30.2817	-0.0206329	28.9	290	0.00024924
30.3817	-0.0206421	29	291	-0.000295037
30.4817	-0.0206451	29.1	292	8.13976e-05
30.5817	-0.0206421	29.2	293	6.10078e-05
30.6817	-0.0206482	29.3	294	-0.000157642
30.7817	-0.0206451	29.4	295	0.000137314
30.8817	-0.020636	29.5	296	0.000111895
30.9817	-0.0206512	29.6	297	-0.000376366
31.0817	-0.020636	29.7	298	0.000488286
31.1817	-0.020639	29.8	299	-0.000284805
31.2817	-0.0206421	29.9	300	3.04542e-05
31.3817	-0.0206421	30	301	2.54375e-05
31.4817	-0.020639	30.1	302	4.579e-05
31.5817	-0.0206482	30.2	303	-0.000203463
31.6817	-0.0206451	30.3	304	0.00017294
31.7817	-0.0206421	30.4	305	-1.01887e-05
31.8817	-0.020639	30.5	306	3.0535e-05
31.9817	-0.020639	30.6	307	-2.54561e-05
32.0817	-0.0206421	30.7	308	-4.58086e-05
32.1817	-0.0206482	30.8	309	-7.62505e-05
32.2817	-0.0206512	30.9	310	5.06018e-06
32.3817	-0.020639	31	311	0.000239101
32.4817	-0.0206451	31.1	312	-0.000264533
32.5817	-0.0206421	31.2	313	0.000167843
32.6817	-0.0206421	31.3	314	-5.59601e-05
32.7817	-0.0206421	31.4	315	1.01576e-05
32.8817	-0.0206421	31.5	316	-1.24176e-08
32.9817	-0.0206512	31.6	317	-0.000167849
33.0817	-0.020639	31.7	318	0.000330644
33.1817	-0.020636	31.8	319	-0.000117036
33.2817	-0.0206451	31.9	320	-0.000162714
33.3817	-0.020639	32	321	0.000228876
33.4817	-0.0206329	32.1	322	1.01638e-05
33.5817	-0.020639	32.2	323	-0.000162745
33.6817	-0.0206421	32.3	324	3.55579e-05
33.7817	-0.020639	32.4	325	7.12399e-05
33.8817	-0.020639	32.5	326	-4.58024e-05
33.9817	-0.020639	32.6	327	1.017e-05
34.0817	-0.0206329	32.7	328	0.000111901
34.1817	-0.0206421	32.8	329	-0.00023907
34.2817	-0.0206482	32.9	330	1.52923e-05
34.3817	-0.0206329	33	331	0.000320437
34.4817	-0.020639	33.1	332	-0.000310255
34.5817	-0.0206451	33.2	333	1.01452e-05
34.6817	-0.020636	33.3	334	0.000218712
34.7817	-0.0206421	33.4	335	-0.000239046
34.8817	-0.0206238	33.5	336	0.000437423
34.9817	-0.020639	33.6	337	-0.000513736
35.0817	-0.020639	33.7	338	0.000239052
35.1817	-0.020636	33.8	339	5.06018e-06
35.2817	-0.020636	33.9	340	-3.55703e-05
35.3817	-0.0206329	34	341	6.61549e-05
35.4817	-0.0206329	34.1	342	-3.56076e-05
35.5817	-0.020636	34.2	343	-4.579e-05
35.6817	-0.020636	34.3	344	3.56262e-05
35.7817	-0.020636	34.4	345	-1.017e-05
35.8817	-0.020636	34.5	346	6.20882e-09
35.9817	-0.0206299	34.6	347	0.000111914
36.0817	-0.0206299	34.7	348	-7.12213e-05
36.1817	-0.0206299	34.8	349	2.03463e-05
36.2817	-0.020639	34.9	350	-0.000167837
36.3817	-0.0206238	35	351	0.000386536
36.4817	-0.0206451	35.1	352	-0.000600194
36.5817	-0.0206299	35.2	353	0.000579847
36.6817	-0.020636	35.3	354	-0.000361136
36.7817	-0.0206299	35.4	355	0.000233998
36.8817	-0.0206268	35.5	356	-3.56386e-05
36.9817	-0.020639	35.6	357	-0.000239033
37.0817	-0.0206268	35.7	358	0.000376329
37.1817	-0.0206238	35.8	359	-0.000127119
37.2817	-0.0206268	35.9	360	-5.09185e-05
37.3817	-0.0206207	36	361	0.000157691
37.4817	-0.0206299	36.1	362	-0.000249203
37.5817	-0.0206207	36.2	363	0.000294981
37.6817	-0.0206299	36.3	364	-0.000305145
37.7817	-0.0206268	36.4	365	0.000193243
37.8817	-0.0206268	36.5	366	-6.61301e-05
37.9817	-0.0206177	36.6	367	0.000178044
38.0817	-0.0206146	36.7	368	-5.0875e-05
38.1817	-0.0206177	36.8	369	-6.10078e-05
38.2817	-0.0206238	36.9	370	-6.61239e-05
38.3817	-0.020636	37	371	-0.000162795
38.4817	-0.0206177	37.1	372	0.000457826
38.5817	-0.0206329	37.2	373	-0.000534064
38.6817	-0.020636	37.3	374	0.000183092
38.7817	-0.020639	37.4	375	-7.11654e-05
38.8817	-0.0206329	37.5	376	0.000137302
38.9817	-0.0206268	37.6	377	3.05039e-05
39.0817	-0.0206177	37.7	378	0.000117018
39.1817	-0.0206299	37.8	379	-0.000310279
39.2817	-0.0206329	37.9	380	0.000117011
39.3817	-0.0206238	38	381	0.000162758
39.4817	-0.0206299	38.1	382	-0.000228907
39.5817	-0.0206299	38.2	383	0.000101738
39.6817	-0.0206329	38.3	384	-7.62753e-05
39.7817	-0.0206299	38.4	385	9.15428e-05
39.8817	-0.0206238	38.5	386	6.61363e-05
39.9817	-0.0206268	38.6	387	-0.000117036
40.0817	-0.0206238	38.7	388	0.000111933
40.1817	-0.0206238	38.8	389	-4.58024e-05
40.2817	-0.0206268	38.9	390	-4.58086e-05
40.3817	-0.0206299	39	391	-2.03215e-05
40.4817	-0.0206238	39.1	392	0.000137333
40.5817	-0.0206238	39.2	393	-8.13976e-05
40.6817	-0.0206268	39.3	394	-3.56386e-05
40.7817	-0.0206268	39.4	395	3.56076e-05
40.8817	-0.0206299	39.5	396	-6.61177e-05
40.9817	-0.0206207	39.6	397	0.000203438
41.0817	-0.0206207	39.7	398	-0.000116962
41.1817	-0.0206238	39.8	399	-2.54065e-05
41.2817	-0.0206207	39.9	400	9.14993e-05
41.3817	-0.0206329	40	401	-0.000269506
41.4817	-0.0206299	40.1	402	0.000208511
41.5817	-0.0206177	40.2	403	0.000147528
41.6817	-0.0206268	40.3	404	-0.000300122
41.7817	-0.0206268	40.4	405	0.000147497
41.8817	-0.0206299	40.5	406	-8.6464e-05
41.9817	-0.0206268	40.6	407	9.15304e-05
42.0817	-0.0206268	40.7	408	-4.57838e-05
42.1817	-0.0206329	40.8	409	-0.0001017
42.2817	-0.0206207	40.9	410	0.000294981
42.3817	-0.0206329	41	411	-0.000386499
42.4817	-0.0206238	41.1	412	0.000350935
42.5817	-0.0206299	41.2	413	-0.000259423
42.6817	-0.0206268	41.3	414	0.000157667
42.7817	-0.0206207	41.4	415	5.59476e-05
42.8817	-0.0206207	41.5	416	-6.10202e-05
42.9817	-0.0206268	41.6	417	-9.15552e-05
43.0817	-0.0206177	41.7	418	0.00023907
43.1817	-0.0206299	41.8	419	-0.000350966
43.2817	-0.0206299	41.9	420	0.00017294
43.3817	-0.0206238	42	421	7.12151e-05
43.4817	-0.0206177	42.1	422	4.06802e-05
43.5817	-0.0206207	42.2	423	-0.000106816
43.6817	-0.0206268	42.3	424	-5.59352e-05
43.7817	-0.0206238	42.4	425	0.000116987
43.8817	-0.0206238	42.5	426	-5.59725e-05
43.9817	-0.0206299	42.6	427	-0.000101738
44.0817	-0.0206177	42.7	428	0.000295037
44.1817	-0.0206238	42.8	429	-0.000274659
44.2817	-0.0206238	42.9	430	0.000111883
44.3817	-0.0206207	43	431	3.55765e-05
44.4817	-0.0206146	43.1	432	7.63374e-05
44.5817	-0.0206299	43.2	433	-0.000340796
44.6817	-0.0206116	43.3	434	0.000534039
44.7817	-0.0206268	43.4	435	-0.00054424
44.8817	-0.0206146	43.5	436	0.000462855
44.9817	-0.0206177	43.6	437	-0.000249209
45.0817	-0.0206116	43.7	438	0.000188164
45.1817	-0.0206268	43.8	439	-0.00036113
45.2817	-0.0206207	43.9	440	0.000310255
45.3817	-0.0206207	44	441	-0.000122053
45.4817	-0.0206146	44.1	442	0.00013226
45.5817	-0.0206177	44.2	443	-0.00012715
45.6817	-0.0206207	44.3	444	-1.86264e-08
45.7817	-0.0206177	44.4	445	8.14348e-05
45.8817	-0.0206146	44.5	446	1.01452e-05
45.9817	-0.0206146	44.6	447	-2.54251e-05
46.0817	-0.0206085	44.7	448	0.000122078
46.1817	-0.0206268	44.8	449	-0.000406951
46.2817	-0.0206146	44.9	450	0.000457788
46.3817	-0.0206207	45	451	-0.000315364
46.4817	-0.0206177	45.1	452	0.000167899
46.5817	-0.0206177	45.2	453	-5.59538e-05
46.6817	-0.0206177	45.3	454	1.01887e-05
46.7817	-0.0206177	45.4	455	1.24176e-08
46.8817	-0.0206116	45.5	456	0.00011187
46.9817	-0.0206146	45.6	457	-0.000127144
47.0817	-0.0206116	45.7	458	0.00011187
47.1817	-0.0206146	45.8	459	-0.000101713
47.2817	-0.0206177	45.9	460	-1.01576e-05
47.3817	-0.0206116	46	461	0.000137302
47.4817	-0.0206146	46.1	462	-0.000137314
47.5817	-0.0206238	46.2	463	-0.000111895
47.6817	-0.0206177	46.3	464	0.000208529
47.7817	-0.0206116	46.4	465	1.01576e-05
47.8817	-0.0206177	46.5	466	-0.000162727
47.9817	-0.0206268	46.6	467	-7.63312e-05
48.0817	-0.0206116	46.7	468	0.000366208
48.1817	-0.0206116	46.8	469	-0.000208554
48.2817	-0.0206207	46.9	470	-0.000116987
48.3817	-0.0206207	47	471	0.000106829
48.4817	-0.0206177	47.1	472	2.54686e-05
48.5817	-0.0206146	47.2	473	2.03215e-05
48.6817	-0.0206146	47.3	474	-2.54251e-05
48.7817	-0.0206146	47.4	475	1.017e-05
48.8817	-0.0206085	47.5	476	0.000111908
48.9817	-0.0206085	47.6	477	-7.12275e-05
49.0817	-0.0206238	47.7	478	-0.000259404
49.1817	-0.0206146	47.8	479	0.00034585
49.2817	-0.0206116	47.9	480	-0.000101731
49.3817	-0.0206146	48	481	-6.10265e-05
49.4817	-0.0206116	48.1	482	0.0001017
49.5817	-0.0206116	48.2	483	-4.57838e-05
49.6817	-0.0206207	48.3	484	-0.000157679
49.7817	-0.0206177	48.4	485	0.000162808
49.8817	-0.0206146	48.5	486	-1.01949e-05
49.9817	-0.0206024	48.6	487	0.00019839
50.0817	-0.0206055	48.7	488	-0.000188214
50.1817	-0.0206207	48.8	489	-0.000203426
50.2817	-0.0206116	48.9	490	0.000335686
50.3817	-0.0206177	49	491	-0.000269556
50.4817	-0.0206055	49.1	492	0.000325497
50.5817	-0.0206055	49.2	493	-0.000162733
50.6817	-0.0206116	49.3	494	-7.12151e-05
50.7817	-0.0206024	49.4	495	0.00023907
50.8817	-0.0206146	49.5	496	-0.000350966
50.9817	-0.0206055	49.6	497	0.000340777
51.0817	-0.0206116	49.7	498	-0.000259392
51.1817	-0.0206116	49.8	499	0.0001017
51.2817	-0.0206085	49.9	500	3.562e-05
51.3817	-0.0206055	50	501	2.03028e-05
51.4817	-0.0206146	50.1	502	-0.000193231
51.5817	-0.0206146	50.2	503	0.000116968
51.6817	-0.0206055	50.3	504	0.00013732
51.7817	-0.0206024	50.4	505	-5.08129e-05
51.8817	-0.0205994	50.5	506	5.08378e-05
51.9817	-0.0206024	50.6	507	-8.13541e-05
52.0817	-0.0206085	50.7	508	-6.61239e-05
52.1817	-0.0206116	50.8	509	5.04156e-06
52.2817	-0.0206024	50.9	510	0.000183148
52.3817	-0.0206055	51	511	-0.000172959
52.4817	-0.0205994	51.1	512	0.000178056
52.5817	-0.0205963	51.2	513	-2.54686e-05
52.6817	-0.0205963	51.3	514	-1.52675e-05
52.7817	-0.0206055	51.4	515	-0.000157679
52.8817	-0.0205994	51.5	516	0.000218737
52.9817	-0.0206085	51.6	517	-0.000269574
53.0817	-0.0205963	51.7	518	0.000350904
53.1817	-0.0206024	51.8	519	-0.000284786
53.2817	-0.0206085	51.9	520	-6.20882e-09
53.3817	-0.0206085	52	521	5.08502e-05
53.4817	-0.0206055	52.1	522	3.55765e-05
53.5817	-0.0206024	52.2	523	2.04084e-05
53.6817	-0.0205994	52.3	524	3.04915e-05
53.7817	-0.0206055	52.4	525	-0.000137333
53.8817	-0.0206024	52.5	526	0.000137376
53.9817	-0.0206024	52.6	527	-5.59538e-05
54.0817	-0.0206055	52.7	528	-4.579e-05
54.1817	-0.0205933	52.8	529	0.000259442
54.2817	-0.0205963	52.9	530	-0.000208604
54.3817	-0.0206055	53	531	-9.15366e-05
54.4817	-0.0206085	53.1	532	4.07236e-05
54.5817	-0.0205994	53.2	533	0.000172891
54.6817	-0.0206085	53.3	534	-0.000284805
54.7817	-0.0205994	53.4	535	0.000305145
54.8817	-0.0205933	53.5	536	-2.54065e-05
54.9817	-0.0206055	53.6	537	-0.000264527
55.0817	-0.0206024	53.7	538	0.000218774
55.1817	-0.0205994	53.8	539	-2.03711e-05
55.2817	-0.0206024	53.9	540	-8.13541e-05
55.3817	-0.0205994	54	541	0.000101713
55.4817	-0.0205933	54.1	542	6.61363e-05
55.5817	-0.0205963	54.2	543	-0.000117036
55.6817	-0.0206024	54.3	544	-5.59042e-05
55.7817	-0.0205994	54.4	545	0.000116968
55.8817	-0.0205963	54.5	546	-1.24176e-08
55.9817	-0.0206055	54.6	547	-0.00019328
56.0817	-0.0205963	54.7	548	0.000284836
56.1817	-0.0206085	54.8	549	-0.000361117
56.2817	-0.0206055	54.9	550	0.000228838
56.3817	-0.0206055	55	551	-7.62567e-05
56.4817	-0.0205994	55.1	552	0.000122084
56.5817	-0.0205963	55.2	553	-1.52923e-05
56.6817	-0.0206055	55.3	554	-0.000183104
56.7817	-0.0205963	55.4	555	0.000284836
56.8817	-0.0205994	55.5	556	-0.00019328
56.9817	-0.0205933	55.6	557	0.000178025
57.0817	-0.0206055	55.7	558	-0.000305213
57.1817	-0.0205902	55.8	559	0.00044254
57.2817	-0.0205933	55.9	560	-0.000274635
57.3817	-0.0206055	56	561	-0.000137382
57.4817	-0.0205994	56.1	562	0.000244187
57.5817	-0.0205933	56.2	563	-6.20882e-09
57.6817	-0.0205933	56.3	564	-5.08812e-05
57.7817	-0.0205933	56.4	565	2.03401e-05
57.8817	-0.0206085	56.5	566	-0.000279751
57.9817	-0.0205994	56.6	567	0.00034585
58.0817	-0.0205994	56.7	568	-0.00015766
58.1817	-0.0205994	56.8	569	3.05163e-05
58.2817	-0.0205994	56.9	570	0
58.3817	-0.0205963	57	571	5.5929e-05
58.4817	-0.0205963	57.1	572	-3.56138e-05
58.5817	-0.0205963	57.2	573	1.01576e-05
58.6817	-0.0206055	57.3	574	-0.000167849
58.7817	-0.0205933	57.4	575	0.000330644
58.8817	-0.0206024	57.5	576	-0.000340802
58.9817	-0.0205902	57.6	577	0.000371293
59.0817	-0.0205933	57.7	578	-0.000228838
59.1817	-0.0205963	57.8	579	2.0278e-05
59.2817	-0.0205963	57.9	580	2.54375e-05
59.3817	-0.0205994	58	581	-6.61177e-05
59.4817	-0.0205933	58.1	582	0.000147509
59.5817	-0.0205902	58.2	583	-2.54686e-05
59.6817	-0.0205933	58.3	584	-7.1153e-05
59.7817	-0.0205933	58.4	585	4.57403e-05
59.8817	-0.0205933	58.5	586	-1.01762e-05
59.9817	-0.0205963	58.6	587	-5.59849e-05
60.0817	-0.0205963	58.7	588	3.56076e-05
60.1817	-0.0205994	58.8	589	-6.61177e-05
60.2817	-0.0205963	58.9	590	9.15304e-05
60.3817	-0.0205994	59	591	-0.000101713
60.4817	-0.0205963	59.1	592	0.0001017
60.5817	-0.0205872	59.2	593	0.000122103
60.6817	-0.0205902	59.3	594	-0.000152613
60.7817	-0.0205994	59.4	595	-0.000101688
60.8817	-0.0205963	59.5	596	0.000152551
60.9817	-0.0205963	59.6	597	-6.61301e-05
61.0817	-0.0205963	59.7	598	1.01576e-05
61.1817	-0.0205902	59.8	599	0.000111895
61.2817	-0.0205902	59.9	600	-7.11903e-05