File: data/20200304/OCP_p29_1.txt
Time (s)	WE(1).Potential (V)	Corrected time (s)	Index	dWE(1).Potential/dt (V/s)	Cutoffs	OCP value (V)
1.31575	-0.00995178	0	1	0	dWE(1).Potential/dt < 1E-06 V/s	-0.0099093
1.41575	-0.00995483	0.1	2	-3.05195e-05	dWE(1).Potential/dt < 1E-06 V/s
1.51575	-0.00995789	0.2	3	-3.05055e-05	dWE(1).Potential/dt < 1E-06 V/s
1.61575	-0.00994263	0.3	4	0.000305179
1.71575	-0.00995178	0.4	5	-0.000356045	dWE(1).Potential/dt < 1E-06 V/s
1.81575	-0.00995483	0.5	6	0.000101732
1.91575	-0.00994873	0.6	7	0.00011698
2.01575	-0.00994873	0.7	8	-8.13821e-05	dWE(1).Potential/dt < 1E-06 V/s
2.11575	-0.00995178	0.8	9	-3.56076e-05	dWE(1).Potential/dt < 1E-06 V/s
2.21575	-0.00995178	0.9	10	3.56138e-05
2.31575	-0.00994263	1	11	0.000157692
2.41575	-0.00994873	1.1	12	-0.000218721	dWE(1).Potential/dt < 1E-06 V/s
2.51575	-0.00995178	1.2	13	4.57745e-05
2.61575	-0.00994568	1.3	14	0.000127175
2.71575	-0.00994873	1.4	15	-0.000137352	dWE(1).Potential/dt < 1E-06 V/s
2.81575	-0.00994263	1.5	16	0.000167865
2.91575	-0.00993958	1.6	17	-2.54469e-05	dWE(1).Potential/dt < 1E-06 V/s
3.01575	-0.00994873	1.7	18	-0.000183098	dWE(1).Potential/dt < 1E-06 V/s
3.11575	-0.00994263	1.8	19	0.000228888
3.21575	-0.00994263	1.9	20	-0.000101719	dWE(1).Potential/dt < 1E-06 V/s
3.31575	-0.00994568	2	21	-3.56014e-05	dWE(1).Potential/dt < 1E-06 V/s
3.41575	-0.00993958	2.1	22	0.000147478
3.51575	-0.00994568	2.2	23	-0.000193262	dWE(1).Potential/dt < 1E-06 V/s
3.61575	-0.00994263	2.3	24	0.000147494
3.71575	-0.00993347	2.4	25	0.000111902
3.81575	-0.00993652	2.5	26	-0.000152591	dWE(1).Potential/dt < 1E-06 V/s
3.91575	-0.00993958	2.6	27	1.01763e-05
4.01575	-0.00993652	2.7	28	8.13728e-05
4.11575	-0.00993347	2.8	29	1.01856e-05
4.21575	-0.00993042	2.9	30	3.05164e-05
4.31575	-0.00994263	3	31	-0.000249231	dWE(1).Potential/dt < 1E-06 V/s
4.41575	-0.00993042	3.1	32	0.000376391
4.51575	-0.00993652	3.2	33	-0.000295022	dWE(1).Potential/dt < 1E-06 V/s
4.61575	-0.00993042	3.3	34	0.000223822
4.71575	-0.00993652	3.4	35	-0.000203479	dWE(1).Potential/dt < 1E-06 V/s
4.81575	-0.00993652	3.5	36	9.15708e-05
4.91575	-0.00993652	3.6	37	-2.03432e-05	dWE(1).Potential/dt < 1E-06 V/s
5.01575	-0.00993347	3.7	38	5.5957e-05
5.11575	-0.00992432	3.8	39	0.000132226
5.21575	-0.00993652	3.9	40	-0.000320434	dWE(1).Potential/dt < 1E-06 V/s
5.31575	-0.00993042	4	41	0.000284848
5.41575	-0.00992737	4.1	42	-5.59601e-05	dWE(1).Potential/dt < 1E-06 V/s
5.51575	-0.00992432	4.2	43	4.06833e-05
5.61575	-0.00992432	4.3	44	-2.54344e-05	dWE(1).Potential/dt < 1E-06 V/s
5.71575	-0.00991821	4.4	45	0.000122072
5.81575	-0.00992737	4.5	46	-0.000239046	dWE(1).Potential/dt < 1E-06 V/s
5.91575	-0.00992126	4.6	47	0.000239046
6.01575	-0.00991516	4.7	48	1.01949e-05
6.11575	-0.00991821	4.8	49	-0.000106835	dWE(1).Potential/dt < 1E-06 V/s
6.21575	-0.00991211	4.9	50	0.000167865
6.31575	-0.00992126	5	51	-0.000249238	dWE(1).Potential/dt < 1E-06 V/s
6.41575	-0.00991821	5.1	52	0.000183123
6.51575	-0.00990906	5.2	53	0.000101707
6.61575	-0.00991821	5.3	54	-0.00026448	dWE(1).Potential/dt < 1E-06 V/s
6.71575	-0.00991516	5.4	55	0.000193281
6.81575	-0.00991211	5.5	56	-1.01763e-05	dWE(1).Potential/dt < 1E-06 V/s
6.91575	-0.00990601	5.6	57	8.64641e-05
7.01575	-0.00990601	5.7	58	-6.10234e-05	dWE(1).Potential/dt < 1E-06 V/s
7.11575	-0.00991211	5.8	59	-9.15367e-05	dWE(1).Potential/dt < 1E-06 V/s
7.21575	-0.00991821	5.9	60	-4.07019e-05	dWE(1).Potential/dt < 1E-06 V/s
7.31575	-0.00990906	6	61	0.000218703
7.41575	-0.00991516	6.1	62	-0.000239046	dWE(1).Potential/dt < 1E-06 V/s
7.51575	-0.00990295	6.2	63	0.000325504
7.61575	-0.00991516	6.3	64	-0.000386543	dWE(1).Potential/dt < 1E-06 V/s
7.71575	-0.00990601	6.4	65	0.000350932
7.81575	-0.00990601	6.5	66	-0.000147484	dWE(1).Potential/dt < 1E-06 V/s
7.91575	-0.00990601	6.6	67	3.05195e-05
8.01575	-0.00990601	6.7	68	3.10441e-09	dWE(1).Potential/dt < 1E-06 V/s
8.11575	-0.00990295	6.8	69	5.5957e-05
8.21575	-0.00990601	6.9	70	-9.15646e-05	dWE(1).Potential/dt < 1E-06 V/s
8.31575	-0.00989685	7	71	0.000213649
8.41575	-0.0098938	7.1	72	-6.10576e-05	dWE(1).Potential/dt < 1E-06 V/s
8.51575	-0.00990295	7.2	73	-0.000172925	dWE(1).Potential/dt < 1E-06 V/s
8.61575	-0.00989685	7.3	74	0.000228888
8.71575	-0.00989075	7.4	75	1.01638e-05
8.81575	-0.0098938	7.5	76	-0.000106804	dWE(1).Potential/dt < 1E-06 V/s
8.91575	-0.00989685	7.6	77	6.20882e-09	dWE(1).Potential/dt < 1E-06 V/s
9.01575	-0.0098877	7.7	78	0.000193271
9.11575	-0.00989075	7.8	79	-0.000172934	dWE(1).Potential/dt < 1E-06 V/s
9.21575	-0.00989685	7.9	80	-4.57528e-05	dWE(1).Potential/dt < 1E-06 V/s
9.31575	-0.0098938	8	81	0.000116962
9.41575	-0.00989685	8.1	82	-0.00011188	dWE(1).Potential/dt < 1E-06 V/s
9.51575	-0.0098938	8.2	83	0.000101707
9.61575	-0.00989685	8.3	84	-0.000101707	dWE(1).Potential/dt < 1E-06 V/s
9.71575	-0.0098938	8.4	85	0.000101707
9.81575	-0.00989685	8.5	86	-0.000101707	dWE(1).Potential/dt < 1E-06 V/s
9.91575	-0.00989075	8.6	87	0.000157661
10.0157	-0.0098999	8.7	88	-0.000249204	dWE(1).Potential/dt < 1E-06 V/s
10.1157	-0.0098877	8.8	89	0.000350929
10.2157	-0.00988464	8.9	90	-0.000116971	dWE(1).Potential/dt < 1E-06 V/s
10.3157	-0.0098938	9	91	-0.000162786	dWE(1).Potential/dt < 1E-06 V/s
10.4157	-0.00989685	9.1	92	6.10576e-05
10.5157	-0.00988464	9.2	93	0.000228879
10.6157	-0.00989685	9.3	94	-0.000376385	dWE(1).Potential/dt < 1E-06 V/s
10.7157	-0.0098938	9.4	95	0.000239046
10.8157	-0.00989075	9.5	96	-2.03432e-05	dWE(1).Potential/dt < 1E-06 V/s
10.9157	-0.0098938	9.6	97	-8.1379e-05	dWE(1).Potential/dt < 1E-06 V/s
11.0157	-0.0098877	9.7	98	0.000157673
11.1157	-0.0098938	9.8	99	-0.00019329	dWE(1).Potential/dt < 1E-06 V/s
11.2157	-0.0098877	9.9	100	0.000203457
11.3157	-0.00989075	10	101	-0.000147509	dWE(1).Potential/dt < 1E-06 V/s
11.4157	-0.00989075	10.1	102	5.59601e-05
11.5157	-0.0098938	10.2	103	-6.6124e-05	dWE(1).Potential/dt < 1E-06 V/s
11.6157	-0.0098877	10.3	104	0.0001475
11.7157	-0.0098938	10.4	105	-0.00019329	dWE(1).Potential/dt < 1E-06 V/s
11.8157	-0.00988464	10.5	106	0.000259411
11.9157	-0.00988464	10.6	107	-0.000127169	dWE(1).Potential/dt < 1E-06 V/s
12.0157	-0.00988159	10.7	108	8.64703e-05
12.1157	-0.00988159	10.8	109	-3.55921e-05	dWE(1).Potential/dt < 1E-06 V/s
12.2157	-0.00988464	10.9	110	-4.57745e-05	dWE(1).Potential/dt < 1E-06 V/s
12.3157	-0.0098877	11	111	-2.03587e-05	dWE(1).Potential/dt < 1E-06 V/s
12.4157	-0.00988464	11.1	112	8.13915e-05
12.5157	-0.00988464	11.2	113	-4.5787e-05	dWE(1).Potential/dt < 1E-06 V/s
12.6157	-0.00989075	11.3	114	-0.000101738	dWE(1).Potential/dt < 1E-06 V/s
12.7157	-0.00988464	11.4	115	0.000183132
12.8157	-0.0098877	11.5	116	-0.000147525	dWE(1).Potential/dt < 1E-06 V/s
12.9157	-0.0098877	11.6	117	5.5957e-05
13.0157	-0.00989075	11.7	118	-6.61271e-05	dWE(1).Potential/dt < 1E-06 V/s
13.1157	-0.0098877	11.8	119	9.15677e-05
13.2157	-0.00988464	11.9	120	1.01701e-05
13.3157	-0.00989075	12	121	-0.000137348	dWE(1).Potential/dt < 1E-06 V/s
13.4157	-0.00988464	12.1	122	0.000193306
13.5157	-0.00989075	12.2	123	-0.000203479	dWE(1).Potential/dt < 1E-06 V/s
13.6157	-0.0098877	12.3	124	0.000147525
13.7157	-0.00989075	12.4	125	-0.000111911	dWE(1).Potential/dt < 1E-06 V/s
13.8157	-0.00989075	12.5	126	4.5787e-05
13.9157	-0.0098877	12.6	127	4.57839e-05
14.0157	-0.00989075	12.7	128	-9.15646e-05	dWE(1).Potential/dt < 1E-06 V/s
14.1157	-0.00988464	12.8	129	0.000157695
14.2157	-0.00988159	12.9	130	-2.54438e-05	dWE(1).Potential/dt < 1E-06 V/s
14.3157	-0.00989075	13	131	-0.000183108	dWE(1).Potential/dt < 1E-06 V/s
14.4157	-0.00988159	13.1	132	0.000284858
14.5157	-0.0098877	13.2	133	-0.000249241	dWE(1).Potential/dt < 1E-06 V/s
14.6157	-0.00988159	13.3	134	0.000213636
14.7157	-0.00988464	13.4	135	-0.000147503	dWE(1).Potential/dt < 1E-06 V/s
14.8157	-0.00987854	13.5	136	0.000167824
14.9157	-0.00988464	13.6	137	-0.000193262	dWE(1).Potential/dt < 1E-06 V/s
15.0157	-0.00988159	13.7	138	0.000147494
15.1157	-0.00988159	13.8	139	-5.59353e-05	dWE(1).Potential/dt < 1E-06 V/s
15.2157	-0.00987854	13.9	140	6.61084e-05
15.3157	-0.00987549	14	141	2.03463e-05
15.4157	-0.0098877	14.1	142	-0.000249216	dWE(1).Potential/dt < 1E-06 V/s
15.5157	-0.00987549	14.2	143	0.000376373
15.6157	-0.00988464	14.3	144	-0.000350932	dWE(1).Potential/dt < 1E-06 V/s
15.7157	-0.00988159	14.4	145	0.000203438
15.8157	-0.00988159	14.5	146	-6.61084e-05	dWE(1).Potential/dt < 1E-06 V/s
15.9157	-0.0098877	14.6	147	-0.000101728	dWE(1).Potential/dt < 1E-06 V/s
16.0157	-0.00987244	14.7	148	0.000350954
16.1157	-0.0098877	14.8	149	-0.00047811	dWE(1).Potential/dt < 1E-06 V/s
16.2157	-0.00988464	14.9	150	0.000284836
16.3157	-0.00987854	15	151	2.54065e-05
16.4157	-0.00987854	15.1	152	-6.10327e-05	dWE(1).Potential/dt < 1E-06 V/s
16.5157	-0.00988159	15.2	153	-3.55921e-05	dWE(1).Potential/dt < 1E-06 V/s
16.6157	-0.00988159	15.3	154	3.56076e-05
16.7157	-0.00987854	15.4	155	4.57652e-05
16.8157	-0.00987549	15.5	156	2.03463e-05
16.9157	-0.00988159	15.6	157	-0.000137308	dWE(1).Potential/dt < 1E-06 V/s
17.0157	-0.00988159	15.7	158	8.1379e-05
17.1157	-0.00988159	15.8	159	-2.0337e-05	dWE(1).Potential/dt < 1E-06 V/s
17.2157	-0.00988464	15.9	160	-5.59477e-05	dWE(1).Potential/dt < 1E-06 V/s
17.3157	-0.00987244	16	161	0.000259386
17.4157	-0.00987549	16.1	162	-0.000208536	dWE(1).Potential/dt < 1E-06 V/s
17.5157	-0.00987549	16.2	163	7.63033e-05
17.6157	-0.00987244	16.3	164	4.57839e-05
17.7157	-0.00987244	16.4	165	-3.56107e-05	dWE(1).Potential/dt < 1E-06 V/s
17.8157	-0.00987244	16.5	166	1.01732e-05
17.9157	-0.00987549	16.6	167	-5.59539e-05	dWE(1).Potential/dt < 1E-06 V/s
18.0157	-0.00987549	16.7	168	3.56138e-05
18.1157	-0.00988159	16.8	169	-0.000122053	dWE(1).Potential/dt < 1E-06 V/s
18.2157	-0.00987549	16.9	170	0.000183089
18.3157	-0.00987244	17	171	-3.55859e-05	dWE(1).Potential/dt < 1E-06 V/s
18.4157	-0.00987854	17.1	172	-0.000127175	dWE(1).Potential/dt < 1E-06 V/s
18.5157	-0.00987549	17.2	173	0.00013733
18.6157	-0.00987854	17.3	174	-0.000111895	dWE(1).Potential/dt < 1E-06 V/s
18.7157	-0.00988159	17.4	175	-1.01638e-05	dWE(1).Potential/dt < 1E-06 V/s
18.8157	-0.00987854	17.5	176	8.13635e-05
18.9157	-0.00987854	17.6	177	-4.57777e-05	dWE(1).Potential/dt < 1E-06 V/s
19.0157	-0.00988159	17.7	178	-4.57652e-05	dWE(1).Potential/dt < 1E-06 V/s
19.1157	-0.00987549	17.8	179	0.000147491
19.2157	-0.00988159	17.9	180	-0.00019325	dWE(1).Potential/dt < 1E-06 V/s
19.3157	-0.00987854	18	181	0.000147478
19.4157	-0.00987854	18.1	182	-5.59508e-05	dWE(1).Potential/dt < 1E-06 V/s
19.5157	-0.00987549	18.2	183	6.61178e-05
19.6157	-0.00987854	18.3	184	-9.15491e-05	dWE(1).Potential/dt < 1E-06 V/s
19.7157	-0.00987549	18.4	185	0.000101719
19.8157	-0.00987244	18.5	186	1.01856e-05
19.9157	-0.00987244	18.6	187	-2.54375e-05	dWE(1).Potential/dt < 1E-06 V/s
20.0157	-0.00987549	18.7	188	-4.57808e-05	dWE(1).Potential/dt < 1E-06 V/s
20.1157	-0.00986938	18.8	189	0.000147522
20.2157	-0.00986633	18.9	190	-2.54438e-05	dWE(1).Potential/dt < 1E-06 V/s
20.3157	-0.00987244	19	191	-0.000127154	dWE(1).Potential/dt < 1E-06 V/s
20.4157	-0.00986938	19.1	192	0.000137336
20.5157	-0.00987549	19.2	193	-0.000167868	dWE(1).Potential/dt < 1E-06 V/s
20.6157	-0.00986938	19.3	194	0.000193306
20.7157	-0.00988159	19.4	195	-0.000315362	dWE(1).Potential/dt < 1E-06 V/s
20.8157	-0.00987244	19.5	196	0.000330611
20.9157	-0.00986938	19.6	197	-9.1546e-05	dWE(1).Potential/dt < 1E-06 V/s
21.0157	-0.00986938	19.7	198	-5.09744e-06	dWE(1).Potential/dt < 1E-06 V/s
21.1157	-0.00987549	19.8	199	-0.000101738	dWE(1).Potential/dt < 1E-06 V/s
21.2157	-0.00986938	19.9	200	0.000183132
21.3157	-0.00987549	20	201	-0.000203479	dWE(1).Potential/dt < 1E-06 V/s
21.4157	-0.00987549	20.1	202	9.15708e-05
21.5157	-0.00986633	20.2	203	0.000147519
21.6157	-0.00987549	20.3	204	-0.000274675	dWE(1).Potential/dt < 1E-06 V/s
21.7157	-0.00988464	20.4	205	-3.04946e-05	dWE(1).Potential/dt < 1E-06 V/s
21.8157	-0.00987854	20.5	206	0.000188158
21.9157	-0.00987549	20.6	207	-4.57683e-05	dWE(1).Potential/dt < 1E-06 V/s
22.0157	-0.00986938	20.7	208	9.66559e-05
22.1157	-0.00987549	20.8	209	-0.000172959	dWE(1).Potential/dt < 1E-06 V/s
22.2157	-0.00987549	20.9	210	9.15708e-05
22.3157	-0.00987244	21	211	3.56107e-05
22.4157	-0.00987549	21.1	212	-9.15646e-05	dWE(1).Potential/dt < 1E-06 V/s
22.5157	-0.00987244	21.2	213	0.000101741
22.6157	-0.00987549	21.3	214	-0.000101738	dWE(1).Potential/dt < 1E-06 V/s
22.7157	-0.00987244	21.4	215	0.000101741
22.8157	-0.00987854	21.5	216	-0.000157692	dWE(1).Potential/dt < 1E-06 V/s
22.9157	-0.00987244	21.6	217	0.000193284
23.0157	-0.00987549	21.7	218	-0.000147509	dWE(1).Potential/dt < 1E-06 V/s
23.1157	-0.00987549	21.8	219	5.59601e-05
23.2157	-0.00987244	21.9	220	4.57839e-05
23.3157	-0.00988464	22	221	-0.000259402	dWE(1).Potential/dt < 1E-06 V/s
23.4157	-0.00987549	22.1	222	0.000320416
23.5157	-0.00987244	22.2	223	-9.15305e-05	dWE(1).Potential/dt < 1E-06 V/s
23.6157	-0.00988464	22.3	224	-0.000228885	dWE(1).Potential/dt < 1E-06 V/s
23.7157	-0.00987549	22.4	225	0.000320416
23.8157	-0.00987244	22.5	226	-9.15305e-05	dWE(1).Potential/dt < 1E-06 V/s
23.9157	-0.00988159	22.6	227	-0.000172931	dWE(1).Potential/dt < 1E-06 V/s
24.0157	-0.00987549	22.7	228	0.000228873
24.1157	-0.00987549	22.8	229	-0.000101713	dWE(1).Potential/dt < 1E-06 V/s
24.2157	-0.00987854	22.9	230	-3.56076e-05	dWE(1).Potential/dt < 1E-06 V/s
24.3157	-0.00987244	23	231	0.0001475
24.4157	-0.00987549	23.1	232	-0.000137336	dWE(1).Potential/dt < 1E-06 V/s
24.5157	-0.00987854	23.2	233	6.20882e-09	dWE(1).Potential/dt < 1E-06 V/s
24.6157	-0.00987244	23.3	234	0.000137327
24.7157	-0.00987244	23.4	235	-8.13821e-05	dWE(1).Potential/dt < 1E-06 V/s
24.8157	-0.00988159	23.5	236	-0.000147491	dWE(1).Potential/dt < 1E-06 V/s
24.9157	-0.00986938	23.6	237	0.000330607
25.0157	-0.00987854	23.7	238	-0.000340802	dWE(1).Potential/dt < 1E-06 V/s
25.1157	-0.00987549	23.8	239	0.000203457
25.2157	-0.00987549	23.9	240	-6.61147e-05	dWE(1).Potential/dt < 1E-06 V/s
25.3157	-0.00987549	24	241	1.01763e-05
25.4157	-0.00987549	24.1	242	3.10441e-09	dWE(1).Potential/dt < 1E-06 V/s
25.5157	-0.00987244	24.2	243	5.5957e-05
25.6157	-0.00987244	24.3	244	-3.56107e-05	dWE(1).Potential/dt < 1E-06 V/s
25.7157	-0.00987549	24.4	245	-4.57808e-05	dWE(1).Potential/dt < 1E-06 V/s
25.8157	-0.00987549	24.5	246	3.56138e-05
25.9157	-0.00986938	24.6	247	0.000101738
26.0157	-0.00987854	24.7	248	-0.000239086	dWE(1).Potential/dt < 1E-06 V/s
26.1157	-0.00987244	24.8	249	0.000239068
26.2157	-0.00987244	24.9	250	-0.000101728	dWE(1).Potential/dt < 1E-06 V/s
26.3157	-0.00986633	25	251	0.000132254
26.4157	-0.00987854	25.1	252	-0.000295018	dWE(1).Potential/dt < 1E-06 V/s
26.5157	-0.00987549	25.2	253	0.000218712
26.6157	-0.00986633	25.3	254	9.15739e-05
26.7157	-0.00986938	25.4	255	-0.000152594	dWE(1).Potential/dt < 1E-06 V/s
26.8157	-0.00987244	25.5	256	1.01607e-05
26.9157	-0.00987244	25.6	257	2.54375e-05
27.0157	-0.00987244	25.7	258	-1.01732e-05	dWE(1).Potential/dt < 1E-06 V/s
27.1157	-0.00986328	25.8	259	0.000167837
27.2157	-0.00987549	25.9	260	-0.000330607	dWE(1).Potential/dt < 1E-06 V/s
27.3157	-0.00988159	26	261	6.10576e-05
27.4157	-0.00987549	26.1	262	0.000142399
27.5157	-0.00986328	26.2	263	0.000132251
27.6157	-0.00987244	26.3	264	-0.000289921	dWE(1).Potential/dt < 1E-06 V/s
27.7157	-0.00987244	26.4	265	0.0001475
27.8157	-0.00987244	26.5	266	-3.05164e-05	dWE(1).Potential/dt < 1E-06 V/s
27.9157	-0.00986633	26.6	267	0.000111908
28.0157	-0.00986938	26.7	268	-0.000127157	dWE(1).Potential/dt < 1E-06 V/s
28.1157	-0.00987244	26.8	269	-1.24176e-08	dWE(1).Potential/dt < 1E-06 V/s
28.2157	-0.00987549	26.9	270	-3.05164e-05	dWE(1).Potential/dt < 1E-06 V/s
28.3157	-0.00986938	27	271	0.000137348
28.4157	-0.00987549	27.1	272	-0.000193306	dWE(1).Potential/dt < 1E-06 V/s
28.5157	-0.00986938	27.2	273	0.000203479
28.6157	-0.00986328	27.3	274	2.03122e-05
28.7157	-0.00986938	27.4	275	-0.000162743	dWE(1).Potential/dt < 1E-06 V/s
28.8157	-0.00986938	27.5	276	9.15398e-05
28.9157	-0.00986938	27.6	277	-2.03463e-05	dWE(1).Potential/dt < 1E-06 V/s
29.0157	-0.00988159	27.7	278	-0.000223794	dWE(1).Potential/dt < 1E-06 V/s
29.1157	-0.00987244	27.8	279	0.000310264
29.2157	-0.00986938	27.9	280	-9.1546e-05	dWE(1).Potential/dt < 1E-06 V/s
29.3157	-0.00987244	28	281	-6.10514e-05	dWE(1).Potential/dt < 1E-06 V/s
29.4157	-0.00987549	28.1	282	-1.01701e-05	dWE(1).Potential/dt < 1E-06 V/s
29.5157	-0.00987549	28.2	283	2.54407e-05
29.6157	-0.00987549	28.3	284	-1.01701e-05	dWE(1).Potential/dt < 1E-06 V/s
29.7157	-0.00988464	28.4	285	-0.000167834	dWE(1).Potential/dt < 1E-06 V/s
29.8157	-0.00987854	28.5	286	0.000218678
29.9157	-0.00987549	28.6	287	-4.57683e-05	dWE(1).Potential/dt < 1E-06 V/s
30.0157	-0.00987854	28.7	288	-7.12059e-05	dWE(1).Potential/dt < 1E-06 V/s
30.1157	-0.00986633	28.8	289	0.000269581
30.2157	-0.00987244	28.9	290	-0.000264493	dWE(1).Potential/dt < 1E-06 V/s
30.3157	-0.00988159	29	291	-5.59353e-05	dWE(1).Potential/dt < 1E-06 V/s
30.4157	-0.00987549	29.1	292	0.000198353
30.5157	-0.00987854	29.2	293	-0.000157667	dWE(1).Potential/dt < 1E-06 V/s
30.6157	-0.00987549	29.3	294	0.000111889
30.7157	-0.00988159	29.4	295	-0.000157651	dWE(1).Potential/dt < 1E-06 V/s
30.8157	-0.00987549	29.5	296	0.000193262
30.9157	-0.00987549	29.6	297	-9.15398e-05	dWE(1).Potential/dt < 1E-06 V/s
31.0157	-0.00987854	29.7	298	-3.56076e-05	dWE(1).Potential/dt < 1E-06 V/s
31.1157	-0.00987854	29.8	299	3.55921e-05
31.2157	-0.00987549	29.9	300	4.57745e-05
31.3157	-0.00987549	30	301	-3.55952e-05	dWE(1).Potential/dt < 1E-06 V/s
31.4157	-0.00988159	30.1	302	-0.000101707	dWE(1).Potential/dt < 1E-06 V/s
31.5157	-0.00988159	30.2	303	7.12059e-05
31.6157	-0.00987854	30.3	304	3.55921e-05
31.7157	-0.00987244	30.4	305	7.63002e-05
31.8157	-0.00988159	30.5	306	-0.000228876	dWE(1).Potential/dt < 1E-06 V/s
31.9157	-0.00988159	30.6	307	0.000127163
32.0157	-0.00988159	30.7	308	-3.05102e-05	dWE(1).Potential/dt < 1E-06 V/s
32.1157	-0.0098877	30.8	309	-0.000111902	dWE(1).Potential/dt < 1E-06 V/s
32.2157	-0.00988464	30.9	310	0.000127163
32.3157	-0.0098877	31	311	-0.000111914	dWE(1).Potential/dt < 1E-06 V/s
32.4157	-0.00988464	31.1	312	0.000101738
32.5157	-0.0098877	31.2	313	-0.000101741	dWE(1).Potential/dt < 1E-06 V/s
32.6157	-0.00989075	31.3	314	-1.01701e-05	dWE(1).Potential/dt < 1E-06 V/s
32.7157	-0.00989075	31.4	315	2.54407e-05
32.8157	-0.00988464	31.5	316	0.000101738
32.9157	-0.0098938	31.6	317	-0.000239086	dWE(1).Potential/dt < 1E-06 V/s
33.0157	-0.0098877	31.7	318	0.000239068
33.1157	-0.00989075	31.8	319	-0.000157682	dWE(1).Potential/dt < 1E-06 V/s
33.2157	-0.00989685	31.9	320	-5.59229e-05	dWE(1).Potential/dt < 1E-06 V/s
33.3157	-0.0098877	32	321	0.00022887
33.4157	-0.0098877	32.1	322	-0.000127154	dWE(1).Potential/dt < 1E-06 V/s
33.5157	-0.00988159	32.2	323	0.000142424
33.6157	-0.0098938	32.3	324	-0.000295018	dWE(1).Potential/dt < 1E-06 V/s
33.7157	-0.00988464	32.4	325	0.00033062
33.8157	-0.0098877	32.5	326	-0.000203469	dWE(1).Potential/dt < 1E-06 V/s
33.9157	-0.00989075	32.6	327	1.01763e-05
34.0157	-0.0098938	32.7	328	-3.05133e-05	dWE(1).Potential/dt < 1E-06 V/s
34.1157	-0.0098877	32.8	329	0.000137327
34.2157	-0.0098938	32.9	330	-0.00019329	dWE(1).Potential/dt < 1E-06 V/s
34.3157	-0.0098999	33	331	-2.03339e-05	dWE(1).Potential/dt < 1E-06 V/s
34.4157	-0.00990295	33.1	332	-5.10365e-06	dWE(1).Potential/dt < 1E-06 V/s
34.5157	-0.00989075	33.2	333	0.000239058
34.6157	-0.00989685	33.3	334	-0.000264462	dWE(1).Potential/dt < 1E-06 V/s
34.7157	-0.00989075	33.4	335	0.000223778
34.8157	-0.00989075	33.5	336	-9.15398e-05	dWE(1).Potential/dt < 1E-06 V/s
34.9157	-0.0098938	33.6	337	-3.56076e-05	dWE(1).Potential/dt < 1E-06 V/s
35.0157	-0.0098877	33.7	338	0.0001475
35.1157	-0.00989685	33.8	339	-0.000249219	dWE(1).Potential/dt < 1E-06 V/s
35.2157	-0.00988464	33.9	340	0.000350954
35.3157	-0.00990295	34	341	-0.000508639	dWE(1).Potential/dt < 1E-06 V/s
35.4157	-0.00989075	34.1	342	0.00047811
35.5157	-0.0098938	34.2	343	-0.000259395	dWE(1).Potential/dt < 1E-06 V/s
35.6157	-0.00989075	34.3	344	0.000132236
35.7157	-0.00989075	34.4	345	-4.57683e-05	dWE(1).Potential/dt < 1E-06 V/s
35.8157	-0.00989075	34.5	346	1.01763e-05
35.9157	-0.00989075	34.6	347	3.10441e-09	dWE(1).Potential/dt < 1E-06 V/s
36.0157	-0.00988159	34.7	348	0.000167865
36.1157	-0.00988464	34.8	349	-0.000162767	dWE(1).Potential/dt < 1E-06 V/s
36.2157	-0.00989075	34.9	350	-4.57932e-05	dWE(1).Potential/dt < 1E-06 V/s
36.3157	-0.00988464	35	351	0.000172959
36.4157	-0.0098938	35.1	352	-0.000259433	dWE(1).Potential/dt < 1E-06 V/s
36.5157	-0.0098877	35.2	353	0.000239068
36.6157	-0.00989075	35.3	354	-0.000157682	dWE(1).Potential/dt < 1E-06 V/s
36.7157	-0.00989075	35.4	355	5.59601e-05
36.8157	-0.0098877	35.5	356	4.57839e-05
36.9157	-0.00989075	35.6	357	-9.15646e-05	dWE(1).Potential/dt < 1E-06 V/s
37.0157	-0.0098938	35.7	358	-1.01669e-05	dWE(1).Potential/dt < 1E-06 V/s
37.1157	-0.0098999	35.8	359	-8.64641e-05	dWE(1).Potential/dt < 1E-06 V/s
37.2157	-0.0098938	35.9	360	0.000172906
37.3157	-0.0098999	36	361	-0.000203432	dWE(1).Potential/dt < 1E-06 V/s
37.4157	-0.00989685	36.1	362	0.000147494
37.5157	-0.0098877	36.2	363	0.000111902
37.6157	-0.0098938	36.3	364	-0.000208545	dWE(1).Potential/dt < 1E-06 V/s
37.7157	-0.0098938	36.4	365	0.000101719
37.8157	-0.0098877	36.5	366	9.15553e-05
37.9157	-0.00989075	36.6	367	-0.000127163	dWE(1).Potential/dt < 1E-06 V/s
38.0157	-0.00989075	36.7	368	5.59601e-05
38.1157	-0.0098877	36.8	369	4.57839e-05
38.2157	-0.0098877	36.9	370	-3.56107e-05	dWE(1).Potential/dt < 1E-06 V/s
38.3157	-0.0098938	37	371	-0.000101735	dWE(1).Potential/dt < 1E-06 V/s
38.4157	-0.0098938	37.1	372	7.12028e-05
38.5157	-0.0098938	37.2	373	-2.03525e-05	dWE(1).Potential/dt < 1E-06 V/s
38.6157	-0.0098938	37.3	374	-6.20882e-09	dWE(1).Potential/dt < 1E-06 V/s
38.7157	-0.00989685	37.4	375	-5.59353e-05	dWE(1).Potential/dt < 1E-06 V/s
38.8157	-0.00990295	37.5	376	-7.63002e-05	dWE(1).Potential/dt < 1E-06 V/s
38.9157	-0.0098938	37.6	377	0.000228876
39.0157	-0.0098938	37.7	378	-0.000127163	dWE(1).Potential/dt < 1E-06 V/s
39.1157	-0.0098938	37.8	379	3.05102e-05
39.2157	-0.00989075	37.9	380	5.59477e-05
39.3157	-0.00988464	38	381	7.63126e-05
39.4157	-0.0098938	38.1	382	-0.000228913	dWE(1).Potential/dt < 1E-06 V/s
39.5157	-0.0098938	38.2	383	0.00012716
39.6157	-0.00990295	38.3	384	-0.000198363	dWE(1).Potential/dt < 1E-06 V/s
39.7157	-0.0098877	38.4	385	0.000386555
39.8157	-0.00989685	38.5	386	-0.000376373	dWE(1).Potential/dt < 1E-06 V/s
39.9157	-0.0098938	38.6	387	0.000213608
40.0157	-0.0098938	38.7	388	-6.6124e-05	dWE(1).Potential/dt < 1E-06 V/s
40.1157	-0.0098938	38.8	389	1.01638e-05
40.2157	-0.0098938	38.9	390	-6.20882e-09	dWE(1).Potential/dt < 1E-06 V/s
40.3157	-0.00989685	39	391	-5.59353e-05	dWE(1).Potential/dt < 1E-06 V/s
40.4157	-0.0098999	39.1	392	-2.03463e-05	dWE(1).Potential/dt < 1E-06 V/s
40.5157	-0.0098999	39.2	393	2.54251e-05
40.6157	-0.00990601	39.3	394	-0.000122084	dWE(1).Potential/dt < 1E-06 V/s
40.7157	-0.00989685	39.4	395	0.000239086
40.8157	-0.00990295	39.5	396	-0.000239068	dWE(1).Potential/dt < 1E-06 V/s
40.9157	-0.0098938	39.6	397	0.000269565
41.0157	-0.0098938	39.7	398	-0.000127163	dWE(1).Potential/dt < 1E-06 V/s
41.1157	-0.0098999	39.8	399	-8.13728e-05	dWE(1).Potential/dt < 1E-06 V/s
41.2157	-0.0098999	39.9	400	7.11966e-05
41.3157	-0.00989685	40	401	3.56076e-05
41.4157	-0.0098999	40.1	402	-9.1546e-05	dWE(1).Potential/dt < 1E-06 V/s
41.5157	-0.00989685	40.2	403	0.000101722
41.6157	-0.00990601	40.3	404	-0.000213627	dWE(1).Potential/dt < 1E-06 V/s
41.7157	-0.00989685	40.4	405	0.000284858
41.8157	-0.00989685	40.5	406	-0.000137333	dWE(1).Potential/dt < 1E-06 V/s
41.9157	-0.00989685	40.6	407	3.05257e-05
42.0157	-0.00989075	40.7	408	0.000111889
42.1157	-0.00990295	40.8	409	-0.000294987	dWE(1).Potential/dt < 1E-06 V/s
42.2157	-0.0098999	40.9	410	0.000218706
42.3157	-0.00990601	41	411	-0.000188211	dWE(1).Potential/dt < 1E-06 V/s
42.4157	-0.00989685	41.1	412	0.000249259
42.5157	-0.00990601	41.2	413	-0.000295022	dWE(1).Potential/dt < 1E-06 V/s
42.6157	-0.0098938	41.3	414	0.000361133
42.7157	-0.0098999	41.4	415	-0.00028483	dWE(1).Potential/dt < 1E-06 V/s
42.8157	-0.00989685	41.5	416	0.00016784
42.9157	-0.0098999	41.6	417	-0.000111889	dWE(1).Potential/dt < 1E-06 V/s
43.0157	-0.0098999	41.7	418	4.57683e-05
43.1157	-0.00989685	41.8	419	4.57777e-05
43.2157	-0.0098999	41.9	420	-9.1546e-05	dWE(1).Potential/dt < 1E-06 V/s
43.3157	-0.00990601	42	421	-6.61395e-05	dWE(1).Potential/dt < 1E-06 V/s
43.4157	-0.0098999	42.1	422	0.000172959
43.5157	-0.0098999	42.2	423	-9.15708e-05	dWE(1).Potential/dt < 1E-06 V/s
43.6157	-0.00989685	42.3	424	7.62971e-05
43.7157	-0.0098999	42.4	425	-9.1546e-05	dWE(1).Potential/dt < 1E-06 V/s
43.8157	-0.0098938	42.5	426	0.000157651
43.9157	-0.0098999	42.6	427	-0.000193262	dWE(1).Potential/dt < 1E-06 V/s
44.0157	-0.0098938	42.7	428	0.000203423
44.1157	-0.00989685	42.8	429	-0.000147478	dWE(1).Potential/dt < 1E-06 V/s
44.2157	-0.00989685	42.9	430	5.59508e-05
44.3157	-0.00989685	43	431	-1.01638e-05	dWE(1).Potential/dt < 1E-06 V/s
44.4157	-0.00989685	43.1	432	6.20882e-09	dWE(1).Potential/dt < 1E-06 V/s
44.5157	-0.00989075	43.2	433	0.000111889
44.6157	-0.00989075	43.3	434	-7.11966e-05	dWE(1).Potential/dt < 1E-06 V/s
44.7157	-0.00989685	43.4	435	-9.15367e-05	dWE(1).Potential/dt < 1E-06 V/s
44.8157	-0.0098999	43.5	436	1.5252e-05
44.9157	-0.0098938	43.6	437	0.000127135
45.0157	-0.00990295	43.7	438	-0.000249216	dWE(1).Potential/dt < 1E-06 V/s
45.1157	-0.0098877	43.8	439	0.000406898
45.2157	-0.0098938	43.9	440	-0.000320444	dWE(1).Potential/dt < 1E-06 V/s
45.3157	-0.0098938	44	441	0.000122065
45.4157	-0.0098938	44.1	442	-2.03525e-05	dWE(1).Potential/dt < 1E-06 V/s
45.5157	-0.00989075	44.2	443	5.59477e-05
45.6157	-0.00989075	44.3	444	-3.55952e-05	dWE(1).Potential/dt < 1E-06 V/s
45.7157	-0.0098938	44.4	445	-4.57777e-05	dWE(1).Potential/dt < 1E-06 V/s
45.8157	-0.0098938	44.5	446	3.55921e-05
45.9157	-0.00989685	44.6	447	-6.61084e-05	dWE(1).Potential/dt < 1E-06 V/s
46.0157	-0.0098877	44.7	448	0.000203445
46.1157	-0.00989075	44.8	449	-0.000172934	dWE(1).Potential/dt < 1E-06 V/s
46.2157	-0.0098999	44.9	450	-0.000101707	dWE(1).Potential/dt < 1E-06 V/s
46.3157	-0.00989075	45	451	0.000264459
46.4157	-0.00990295	45.1	452	-0.000361102	dWE(1).Potential/dt < 1E-06 V/s
46.5157	-0.00989685	45.2	453	0.000284833
46.6157	-0.00989075	45.3	454	-9.31323e-09	dWE(1).Potential/dt < 1E-06 V/s
46.7157	-0.00989075	45.4	455	-5.08503e-05	dWE(1).Potential/dt < 1E-06 V/s
46.8157	-0.0098999	45.5	456	-0.000147491	dWE(1).Potential/dt < 1E-06 V/s
46.9157	-0.0098938	45.6	457	0.000218678
47.0157	-0.00989685	45.7	458	-0.000157651	dWE(1).Potential/dt < 1E-06 V/s
47.1157	-0.0098938	45.8	459	0.00011188
47.2157	-0.0098938	45.9	460	-4.57777e-05	dWE(1).Potential/dt < 1E-06 V/s
47.3157	-0.0098938	46	461	1.01638e-05
47.4157	-0.00989685	46.1	462	-5.59353e-05	dWE(1).Potential/dt < 1E-06 V/s
47.5157	-0.00989075	46.2	463	0.000147491
47.6157	-0.00988464	46.3	464	3.05412e-05
47.7157	-0.00989685	46.4	465	-0.000274672	dWE(1).Potential/dt < 1E-06 V/s
47.8157	-0.0098938	46.5	466	0.000218703
47.9157	-0.00989075	46.6	467	-2.03432e-05	dWE(1).Potential/dt < 1E-06 V/s
48.0157	-0.00989075	46.7	468	-2.54251e-05	dWE(1).Potential/dt < 1E-06 V/s
48.1157	-0.00989075	46.8	469	1.01763e-05
48.2157	-0.0098877	46.9	470	5.5957e-05
48.3157	-0.0098877	47	471	-3.56107e-05	dWE(1).Potential/dt < 1E-06 V/s
48.4157	-0.0098877	47.1	472	1.01732e-05
48.5157	-0.0098877	47.2	473	0	dWE(1).Potential/dt < 1E-06 V/s
48.6157	-0.0098938	47.3	474	-0.000111908	dWE(1).Potential/dt < 1E-06 V/s
48.7157	-0.0098877	47.4	475	0.000183111
48.8157	-0.00988464	47.5	476	-3.56014e-05	dWE(1).Potential/dt < 1E-06 V/s
48.9157	-0.00988159	47.6	477	4.06864e-05
49.0157	-0.00988159	47.7	478	-2.54189e-05	dWE(1).Potential/dt < 1E-06 V/s
49.1157	-0.00989075	47.8	479	-0.000157682	dWE(1).Potential/dt < 1E-06 V/s
49.2157	-0.0098938	47.9	480	5.08689e-05
49.3157	-0.0098938	48	481	5.07261e-06
49.4157	-0.0098938	48.1	482	-1.01794e-05	dWE(1).Potential/dt < 1E-06 V/s
49.5157	-0.0098938	48.2	483	-6.20882e-09	dWE(1).Potential/dt < 1E-06 V/s
49.6157	-0.0098938	48.3	484	-6.20882e-09	dWE(1).Potential/dt < 1E-06 V/s
49.7157	-0.0098938	48.4	485	-6.20882e-09	dWE(1).Potential/dt < 1E-06 V/s
49.8157	-0.0098938	48.5	486	-6.20882e-09	dWE(1).Potential/dt < 1E-06 V/s
49.9157	-0.0098938	48.6	487	-6.20882e-09	dWE(1).Potential/dt < 1E-06 V/s
50.0157	-0.0098877	48.7	488	0.000111902
50.1157	-0.00989075	48.8	489	-0.000127163	dWE(1).Potential/dt < 1E-06 V/s
50.2157	-0.00989075	48.9	490	5.59601e-05
50.3157	-0.0098877	49	491	4.57839e-05
50.4157	-0.0098938	49.1	492	-0.000147519	dWE(1).Potential/dt < 1E-06 V/s
50.5157	-0.00988464	49.2	493	0.000249238
50.6157	-0.0098938	49.3	494	-0.000295031	dWE(1).Potential/dt < 1E-06 V/s
50.7157	-0.00989685	49.4	495	8.14039e-05
50.8157	-0.0098877	49.5	496	0.000172925
50.9157	-0.0098938	49.6	497	-0.000228888	dWE(1).Potential/dt < 1E-06 V/s
51.0157	-0.0098999	49.7	498	-1.01638e-05	dWE(1).Potential/dt < 1E-06 V/s
51.1157	-0.00989685	49.8	499	0.000106804
51.2157	-0.00989685	49.9	500	-5.59353e-05	dWE(1).Potential/dt < 1E-06 V/s
51.3157	-0.0098999	50	501	-4.57745e-05	dWE(1).Potential/dt < 1E-06 V/s
51.4157	-0.0098999	50.1	502	3.55952e-05
51.5157	-0.0098938	50.2	503	0.000101707
51.6157	-0.00989075	50.3	504	-1.5252e-05	dWE(1).Potential/dt < 1E-06 V/s
51.7157	-0.00989685	50.4	505	-0.000127135	dWE(1).Potential/dt < 1E-06 V/s
51.8157	-0.0098938	50.5	506	0.000137308
51.9157	-0.00990601	50.6	507	-0.000279742	dWE(1).Potential/dt < 1E-06 V/s
52.0157	-0.0098938	50.7	508	0.000376385
52.1157	-0.00990295	50.8	509	-0.000350954	dWE(1).Potential/dt < 1E-06 V/s
52.2157	-0.0098938	50.9	510	0.000315337
52.3157	-0.00990295	51	511	-0.00030517	dWE(1).Potential/dt < 1E-06 V/s
52.4157	-0.0098999	51.1	512	0.000193281
52.5157	-0.00989685	51.2	513	-1.01763e-05	dWE(1).Potential/dt < 1E-06 V/s
52.6157	-0.00990295	51.3	514	-0.000137327	dWE(1).Potential/dt < 1E-06 V/s
52.7157	-0.00989685	51.4	515	0.00019329
52.8157	-0.0098999	51.5	516	-0.000147503	dWE(1).Potential/dt < 1E-06 V/s
52.9157	-0.00989685	51.6	517	0.000111895
53.0157	-0.00990601	51.7	518	-0.000213627	dWE(1).Potential/dt < 1E-06 V/s
53.1157	-0.0098999	51.8	519	0.000228904
53.2157	-0.00990295	51.9	520	-0.000157698	dWE(1).Potential/dt < 1E-06 V/s
53.3157	-0.0098999	52	521	0.000111911
53.4157	-0.0098999	52.1	522	-4.5787e-05	dWE(1).Potential/dt < 1E-06 V/s
53.5157	-0.00990295	52.2	523	-4.57839e-05	dWE(1).Potential/dt < 1E-06 V/s
53.6157	-0.0098999	52.3	524	9.15646e-05
53.7157	-0.00990295	52.4	525	-0.000101741	dWE(1).Potential/dt < 1E-06 V/s
53.8157	-0.0098999	52.5	526	0.000101738
53.9157	-0.00990601	52.6	527	-0.000157695	dWE(1).Potential/dt < 1E-06 V/s
54.0157	-0.0098999	52.7	528	0.000193306
54.1157	-0.00990601	52.8	529	-0.000203479	dWE(1).Potential/dt < 1E-06 V/s
54.2157	-0.00990295	52.9	530	0.000147525
54.3157	-0.00990295	53	531	-5.5957e-05	dWE(1).Potential/dt < 1E-06 V/s
54.4157	-0.00990601	53.1	532	-4.57808e-05	dWE(1).Potential/dt < 1E-06 V/s
54.5157	-0.00990601	53.2	533	3.56138e-05
54.6157	-0.0098999	53.3	534	0.000101738
54.7157	-0.00990295	53.4	535	-0.000127178	dWE(1).Potential/dt < 1E-06 V/s
54.8157	-0.0098999	53.5	536	0.000111911
54.9157	-0.0098999	53.6	537	-4.5787e-05	dWE(1).Potential/dt < 1E-06 V/s
55.0157	-0.00990295	53.7	538	-4.57839e-05	dWE(1).Potential/dt < 1E-06 V/s
55.1157	-0.0098999	53.8	539	9.15646e-05
55.2157	-0.00989685	53.9	540	1.01669e-05
55.3157	-0.00990601	54	541	-0.000193281	dWE(1).Potential/dt < 1E-06 V/s
55.4157	-0.00990906	54.1	542	6.1042e-05
55.5157	-0.00990906	54.2	543	5.07261e-06
55.6157	-0.0098999	54.3	544	0.000157682
55.7157	-0.00991516	54.4	545	-0.000386568	dWE(1).Potential/dt < 1E-06 V/s
55.8157	-0.00990906	54.5	546	0.000320419
55.9157	-0.00990601	54.6	547	-6.61147e-05	dWE(1).Potential/dt < 1E-06 V/s
56.0157	-0.00990601	54.7	548	-1.5252e-05	dWE(1).Potential/dt < 1E-06 V/s
56.1157	-0.00990906	54.8	549	-4.57777e-05	dWE(1).Potential/dt < 1E-06 V/s
56.2157	-0.00990601	54.9	550	9.1546e-05
56.3157	-0.00990295	55	551	1.01856e-05
56.4157	-0.00990601	55.1	552	-8.13915e-05	dWE(1).Potential/dt < 1E-06 V/s
56.5157	-0.0098999	55.2	553	0.000157695
56.6157	-0.00990295	55.3	554	-0.000137352	dWE(1).Potential/dt < 1E-06 V/s
56.7157	-0.00990906	55.4	555	-5.59508e-05	dWE(1).Potential/dt < 1E-06 V/s
56.8157	-0.00991211	55.5	556	5.10055e-06
56.9157	-0.00990906	55.6	557	7.11904e-05
57.0157	-0.00989685	55.7	558	0.000178038
57.1157	-0.00990601	55.8	559	-0.000300103	dWE(1).Potential/dt < 1E-06 V/s
57.2157	-0.00991211	55.9	560	3.56324e-05
57.3157	-0.00990906	56	561	9.66155e-05
57.4157	-0.00991211	56.1	562	-0.00011188	dWE(1).Potential/dt < 1E-06 V/s
57.5157	-0.00990906	56.2	563	0.000101707
57.6157	-0.0098999	56.3	564	0.000122084
57.7157	-0.0098999	56.4	565	-9.66528e-05	dWE(1).Potential/dt < 1E-06 V/s
57.8157	-0.00991211	56.5	566	-0.000193274	dWE(1).Potential/dt < 1E-06 V/s
57.9157	-0.00990601	56.6	567	0.00025431
58.0157	-0.00990906	56.7	568	-0.00016784	dWE(1).Potential/dt < 1E-06 V/s
58.1157	-0.00991211	56.8	569	6.20882e-09	dWE(1).Potential/dt < 1E-06 V/s
58.2157	-0.00991211	56.9	570	2.54344e-05
58.3157	-0.00990601	57	571	0.000101719
58.4157	-0.00990906	57.1	572	-0.00012715	dWE(1).Potential/dt < 1E-06 V/s
58.5157	-0.00990601	57.2	573	0.000111889
58.6157	-0.00990601	57.3	574	-4.57683e-05	dWE(1).Potential/dt < 1E-06 V/s
58.7157	-0.00991211	57.4	575	-0.000101707	dWE(1).Potential/dt < 1E-06 V/s
58.8157	-0.00991211	57.5	576	7.12059e-05
58.9157	-0.00991211	57.6	577	-2.0337e-05	dWE(1).Potential/dt < 1E-06 V/s
59.0157	-0.00990601	57.7	578	0.000111889
59.1157	-0.00991211	57.8	579	-0.00018308	dWE(1).Potential/dt < 1E-06 V/s
59.2157	-0.00991516	57.9	580	3.55952e-05
59.3157	-0.00990295	58	581	0.000239043
59.4157	-0.00991211	58.1	582	-0.000320419	dWE(1).Potential/dt < 1E-06 V/s
59.5157	-0.00990906	58.2	583	0.000203435
59.6157	-0.00990601	58.3	584	-1.01701e-05	dWE(1).Potential/dt < 1E-06 V/s
59.7157	-0.00991211	58.4	585	-0.000137308	dWE(1).Potential/dt < 1E-06 V/s
59.8157	-0.00991211	58.5	586	8.1379e-05
59.9157	-0.00990906	58.6	587	3.55921e-05
60.0157	-0.00990601	58.7	588	2.03463e-05
60.1157	-0.00990906	58.8	589	-8.1379e-05	dWE(1).Potential/dt < 1E-06 V/s
60.2157	-0.00991516	58.9	590	-6.61178e-05	dWE(1).Potential/dt < 1E-06 V/s
60.3157	-0.00991211	59	591	0.000116977
60.4157	-0.00990906	59.1	592	-6.20882e-09	dWE(1).Potential/dt < 1E-06 V/s
60.5157	-0.00990906	59.2	593	-2.54344e-05	dWE(1).Potential/dt < 1E-06 V/s
60.6157	-0.00991821	59.3	594	-0.000157673	dWE(1).Potential/dt < 1E-06 V/s
60.7157	-0.00991516	59.4	595	0.000162764
60.8157	-0.00991516	59.5	596	-6.61302e-05	dWE(1).Potential/dt < 1E-06 V/s
60.9157	-0.00991516	59.6	597	1.01701e-05
61.0157	-0.00991821	59.7	598	-5.5957e-05	dWE(1).Potential/dt < 1E-06 V/s
61.1157	-0.00991516	59.8	599	9.15646e-05
61.2157	-0.00991516	59.9	600	-4.5787e-05	dWE(1).Potential/dt < 1E-06 V/s