File: data/Z_measu_on_silk_fibroin/OCP_GNP1%_SF2.txt
Time (s)	WE(1).Potential (V)	Corrected time (s)	Index	dWE(1).Potential/dt (V/s)	Cutoffs	OCP value (V)
1.40574	-0.0202454	0	1	0	dWE(1).Potential/dt < 1E-06 V/s	-0.0181939
1.50574	-0.0202087	0.1	2	0.000366215
1.60574	-0.0201355	0.2	3	0.000915546
1.70574	-0.020163	0.3	4	-0.00123601	dWE(1).Potential/dt < 1E-06 V/s
1.80574	-0.0201752	0.4	5	0.000340845
1.90574	-0.020163	0.5	6	0.000274622
2.00574	-0.0202179	0.6	7	-0.00119015	dWE(1).Potential/dt < 1E-06 V/s
2.10574	-0.0202209	0.7	8	0.000625613
2.20574	-0.0202728	0.8	9	-0.00109863	dWE(1).Potential/dt < 1E-06 V/s
2.30574	-0.0202911	0.9	10	0.000259355
2.40574	-0.0203094	1	11	-0.000294981	dWE(1).Potential/dt < 1E-06 V/s
2.50574	-0.0203339	1.1	12	-0.000294999	dWE(1).Potential/dt < 1E-06 V/s
2.60574	-0.0203003	1.2	13	0.000839196
2.70574	-0.0203186	1.3	14	-0.000808661	dWE(1).Potential/dt < 1E-06 V/s
2.80574	-0.0202881	1.4	15	0.000884974
2.90574	-0.0202667	1.5	16	-2.54251e-05	dWE(1).Potential/dt < 1E-06 V/s
3.00574	-0.0202942	1.6	17	-0.000651038	dWE(1).Potential/dt < 1E-06 V/s
3.10574	-0.0203186	1.7	18	-5.59352e-05	dWE(1).Potential/dt < 1E-06 V/s
3.20574	-0.0203583	1.8	19	-0.00053407	dWE(1).Potential/dt < 1E-06 V/s
3.30574	-0.0203766	1.9	20	4.57714e-05
3.40574	-0.0203644	2	21	0.000305219
3.50574	-0.020282	2.1	22	0.00130714
3.60574	-0.0202972	2.2	23	-0.00120033	dWE(1).Potential/dt < 1E-06 V/s
3.70574	-0.0203949	2.3	24	-0.00133768	dWE(1).Potential/dt < 1E-06 V/s
3.80574	-0.0204956	2.4	25	-0.00075786	dWE(1).Potential/dt < 1E-06 V/s
3.90574	-0.0205383	2.5	26	6.61239e-05
4.00574	-0.020575	2.6	27	-0.000508632	dWE(1).Potential/dt < 1E-06 V/s
4.10574	-0.0206085	2.7	28	-0.00033057	dWE(1).Potential/dt < 1E-06 V/s
4.20574	-0.0206787	2.8	29	-0.00101728	dWE(1).Potential/dt < 1E-06 V/s
4.30574	-0.0207184	2.9	30	-2.03587e-05	dWE(1).Potential/dt < 1E-06 V/s
4.40574	-0.0207336	3	31	-5.08688e-05	dWE(1).Potential/dt < 1E-06 V/s
4.50574	-0.0208252	3.1	32	-0.00163271	dWE(1).Potential/dt < 1E-06 V/s
4.60574	-0.020874	3.2	33	0.000122078
4.70574	-0.0209167	3.3	34	-0.000518821	dWE(1).Potential/dt < 1E-06 V/s
4.80574	-0.02099	3.4	35	-0.00100706	dWE(1).Potential/dt < 1E-06 V/s
4.90574	-0.0210388	3.5	36	-0.00018316	dWE(1).Potential/dt < 1E-06 V/s
5.00574	-0.0210724	3.6	37	-0.00028989	dWE(1).Potential/dt < 1E-06 V/s
5.10574	-0.0211487	3.7	38	-0.00116985	dWE(1).Potential/dt < 1E-06 V/s
5.20574	-0.021167	3.8	39	0.000442527
5.30574	-0.0211426	3.9	40	0.000406901
5.40574	-0.0212036	4	41	-0.00146486	dWE(1).Potential/dt < 1E-06 V/s
5.50574	-0.02117	4.1	42	0.00140887
5.60574	-0.0211823	4.2	43	-0.000818825	dWE(1).Potential/dt < 1E-06 V/s
5.70574	-0.0212036	4.3	44	-0.000137345	dWE(1).Potential/dt < 1E-06 V/s
5.80574	-0.0212219	4.4	45	-0.0001272	dWE(1).Potential/dt < 1E-06 V/s
5.90574	-0.0213226	4.5	46	-0.00170389	dWE(1).Potential/dt < 1E-06 V/s
6.00574	-0.0213654	4.6	47	0.00033065
6.10574	-0.0214111	4.7	48	-0.000676475	dWE(1).Potential/dt < 1E-06 V/s
6.20574	-0.0214203	4.8	49	0.000223772
6.30574	-0.0214478	4.9	50	-0.000549294	dWE(1).Potential/dt < 1E-06 V/s
6.40574	-0.0214935	5	51	-0.000549344	dWE(1).Potential/dt < 1E-06 V/s
6.50574	-0.0214966	5.1	52	0.000386524
6.60574	-0.0215118	5.2	53	-0.000396725	dWE(1).Potential/dt < 1E-06 V/s
6.70574	-0.0215637	5.3	54	-0.000783261	dWE(1).Potential/dt < 1E-06 V/s
6.80574	-0.0215851	5.4	55	0.000162758
6.90574	-0.0216095	5.5	56	-0.0003713	dWE(1).Potential/dt < 1E-06 V/s
7.00574	-0.0216461	5.6	57	-0.000457751	dWE(1).Potential/dt < 1E-06 V/s
7.10574	-0.0216736	5.7	58	-0.00015771	dWE(1).Potential/dt < 1E-06 V/s
7.20574	-0.0216949	5.8	59	-0.000193256	dWE(1).Potential/dt < 1E-06 V/s
7.30574	-0.0217041	5.9	60	-1.01887e-05	dWE(1).Potential/dt < 1E-06 V/s
7.40574	-0.021759	6	61	-0.00097145	dWE(1).Potential/dt < 1E-06 V/s
7.50574	-0.0218353	6.1	62	-0.000788383	dWE(1).Potential/dt < 1E-06 V/s
7.60574	-0.0220032	6.2	63	-0.0023702	dWE(1).Potential/dt < 1E-06 V/s
7.70574	-0.0218689	6.3	64	0.00416567
7.80574	-0.0218689	6.4	65	-0.00212605	dWE(1).Potential/dt < 1E-06 V/s
7.90574	-0.0218842	6.5	66	0.000167862
8.00574	-0.0218628	6.6	67	0.000569634
8.10574	-0.0218964	6.7	68	-0.000915515	dWE(1).Potential/dt < 1E-06 V/s
8.20574	-0.0218872	6.8	69	0.000630679
8.30574	-0.0219086	6.9	70	-0.000610339	dWE(1).Potential/dt < 1E-06 V/s
8.40574	-0.0218964	7	71	0.000503535
8.50574	-0.0218903	7.1	72	-0.000101719	dWE(1).Potential/dt < 1E-06 V/s
8.60574	-0.0218994	7.2	73	-0.000198372	dWE(1).Potential/dt < 1E-06 V/s
8.70574	-0.021936	7.3	74	-0.000544215	dWE(1).Potential/dt < 1E-06 V/s
8.80574	-0.0219574	7.4	75	5.06018e-06
8.90574	-0.0220306	7.5	76	-0.00121562	dWE(1).Potential/dt < 1E-06 V/s
9.00574	-0.0219666	7.6	77	0.00195823
9.10574	-0.0219391	7.7	78	-0.000488336	dWE(1).Potential/dt < 1E-06 V/s
9.20574	-0.0219086	7.8	79	0.000452685
9.30574	-0.0219025	7.9	80	-0.000152594	dWE(1).Potential/dt < 1E-06 V/s
9.40574	-0.0218872	8	81	0.000310279
9.50574	-0.0218872	8.1	82	-0.000157667	dWE(1).Potential/dt < 1E-06 V/s
9.60574	-0.0218658	8.2	83	0.000442521
9.70574	-0.0218842	8.3	84	-0.000584914	dWE(1).Potential/dt < 1E-06 V/s
9.80574	-0.0219147	8.4	85	-0.000274647	dWE(1).Potential/dt < 1E-06 V/s
9.90574	-0.0219025	8.5	86	0.000518784
10.0057	-0.0219086	8.6	87	-0.000356026	dWE(1).Potential/dt < 1E-06 V/s
10.1057	-0.0219788	8.7	88	-0.00117494	dWE(1).Potential/dt < 1E-06 V/s
10.2057	-0.0218689	8.8	89	0.00281275
10.3057	-0.0218414	8.9	90	-0.0010122	dWE(1).Potential/dt < 1E-06 V/s
10.4057	-0.021759	9	91	0.00155643
10.5057	-0.0217682	9.1	92	-0.0010376	dWE(1).Potential/dt < 1E-06 V/s
10.6057	-0.0218872	9.2	93	-0.00180058	dWE(1).Potential/dt < 1E-06 V/s
10.7057	-0.0219666	9.3	94	-9.65843e-05	dWE(1).Potential/dt < 1E-06 V/s
10.8057	-0.0219727	9.4	95	0.000417028
10.9057	-0.0219757	9.5	96	-0.000249191	dWE(1).Potential/dt < 1E-06 V/s
11.0057	-0.0219269	9.6	97	0.00091043
11.1057	-0.0219055	9.7	98	-0.000188177	dWE(1).Potential/dt < 1E-06 V/s
11.2057	-0.021933	9.8	99	-0.000590049	dWE(1).Potential/dt < 1E-06 V/s
11.3057	-0.021936	9.9	100	0.000335748
11.4057	-0.0218933	10	101	0.00072727
11.5057	-0.0218567	10.1	102	0.000162777
11.6057	-0.0216949	10.2	103	0.00268046
11.7057	-0.0217529	10.3	104	-0.00282795	dWE(1).Potential/dt < 1E-06 V/s
11.8057	-0.0217621	10.4	105	0.00104776
11.9057	-0.0217804	10.5	106	-0.000422162	dWE(1).Potential/dt < 1E-06 V/s
12.0057	-0.0217255	10.6	107	0.0011902
12.1057	-0.0216827	10.7	108	8.13727e-05
12.2057	-0.0216675	10.8	109	-3.56076e-05	dWE(1).Potential/dt < 1E-06 V/s
12.3057	-0.0215881	10.9	110	0.00141905
12.4057	-0.0216034	11	111	-0.00115459	dWE(1).Potential/dt < 1E-06 V/s
12.5057	-0.0216949	11.1	112	-0.00123598	dWE(1).Potential/dt < 1E-06 V/s
12.6057	-0.0214844	11.2	113	0.00487773
12.7057	-0.0213959	11.3	114	-0.00113931	dWE(1).Potential/dt < 1E-06 V/s
12.8057	-0.0213562	11.4	115	0.000396731
12.9057	-0.0213165	11.5	116	0.000559464
13.0057	-0.0212738	11.6	117	0.00045271
13.1057	-0.021283	11.7	118	-0.000534089	dWE(1).Potential/dt < 1E-06 V/s
13.2057	-0.021228	11.8	119	0.00125634
13.3057	-0.0211792	11.9	120	0.000223778
13.4057	-0.0211517	12	121	0.000117011
13.5057	-0.0210541	12.1	122	0.00163266
13.6057	-0.0210022	12.2	123	-9.6634e-05	dWE(1).Potential/dt < 1E-06 V/s
13.7057	-0.0209991	12.3	124	-0.000223753	dWE(1).Potential/dt < 1E-06 V/s
13.8057	-0.0209564	12.4	125	0.000920581
13.9057	-0.0209259	12.5	126	7.12337e-05
14.0057	-0.0208496	12.6	127	0.0011851
14.1057	-0.0208069	12.7	128	-5.06018e-06	dWE(1).Potential/dt < 1E-06 V/s
14.2057	-0.0207581	12.8	129	0.000650988
14.3057	-0.0207214	12.9	130	0.000244187
14.4057	-0.0206451	13	131	0.00113422
14.5057	-0.02052	13.1	132	0.00152586
14.6057	-0.0203796	13.2	133	0.00136822
14.7057	-0.0203094	13.3	134	6.60866e-05
14.8057	-0.0203308	13.4	135	-0.000742587	dWE(1).Potential/dt < 1E-06 V/s
14.9057	-0.0202667	13.5	136	0.00165817
15.0057	-0.0201721	13.6	137	0.000915502
15.1057	-0.0201202	13.7	138	6.10513e-05
15.2057	-0.0200592	13.8	139	0.000829038
15.3057	-0.0200104	13.9	140	0.000356013
15.4057	-0.0199707	14	141	0.000361148
15.5057	-0.0199127	14.1	142	0.000762933
15.6057	-0.0198608	14.2	143	0.000406907
15.7057	-0.0198181	14.3	144	0.00037125
15.8057	-0.0197571	14.4	145	0.000793462
15.9057	-0.0198242	14.5	146	-0.00180051	dWE(1).Potential/dt < 1E-06 V/s
16.0057	-0.0198242	14.6	147	0.000986742
16.1057	-0.0198181	14.7	148	-0.00011192	dWE(1).Potential/dt < 1E-06 V/s
16.2057	-0.0197937	14.8	149	0.000376416
16.3057	-0.0196594	14.9	150	0.00219724
16.4057	-0.0195007	15	151	0.00142419
16.5057	-0.0194244	15.1	152	-5.10365e-06	dWE(1).Potential/dt < 1E-06 V/s
16.6057	-0.0193481	15.2	153	0.0010376
16.7057	-0.0192566	15.3	154	0.00104268
16.8057	-0.0191864	15.4	155	0.000473012
16.9057	-0.0191833	15.5	156	-0.000457714	dWE(1).Potential/dt < 1E-06 V/s
17.0057	-0.0190521	15.6	157	0.00260415
17.1057	-0.0189453	15.7	158	0.000437405
17.2057	-0.0187256	15.8	159	0.00321961
17.3057	-0.0188049	15.9	160	-0.00366211	dWE(1).Potential/dt < 1E-06 V/s
17.4057	-0.0187347	16	161	0.00294496
17.5057	-0.0186829	16.1	162	-0.00013226	dWE(1).Potential/dt < 1E-06 V/s
17.6057	-0.0186768	16.2	163	-0.000259373	dWE(1).Potential/dt < 1E-06 V/s
17.7057	-0.0186798	16.3	164	4.57838e-05
17.8057	-0.0186279	16.4	165	0.00100705
17.9057	-0.0185944	16.5	166	2.48353e-08	dWE(1).Potential/dt < 1E-06 V/s
18.0057	-0.0185608	16.6	167	0.000396681
18.1057	-0.0185303	16.7	168	0.000279782
18.2057	-0.0184906	16.8	169	0.000483189
18.3057	-0.0184387	16.9	170	0.000589993
18.4057	-0.0183777	17	171	0.000645971
18.5057	-0.0183563	17.1	172	-0.000147484	dWE(1).Potential/dt < 1E-06 V/s
18.6057	-0.0183502	17.2	173	6.61177e-05
18.7057	-0.0182861	17.3	174	0.00117489
18.8057	-0.0182343	17.4	175	0.00022384
18.9057	-0.0181122	17.5	176	0.0018463
19.0057	-0.0180237	17.6	177	0.000371318
19.1057	-0.0179321	17.7	178	0.00105287
19.2057	-0.0179138	17.8	179	-0.000437423	dWE(1).Potential/dt < 1E-06 V/s
19.3057	-0.0178711	17.9	180	0.000874859
19.4057	-0.0178101	18	181	0.000681567
19.5057	-0.0177643	18.1	182	0.000269587
19.6057	-0.0177429	18.2	183	6.10078e-05
19.7057	-0.0177399	18.3	184	-4.06677e-05	dWE(1).Potential/dt < 1E-06 V/s
19.8057	-0.017688	18.4	185	0.000986717
19.9057	-0.017688	18.5	186	-0.000595065	dWE(1).Potential/dt < 1E-06 V/s
20.0057	-0.0177124	18.6	187	-0.000274684	dWE(1).Potential/dt < 1E-06 V/s
20.1057	-0.0177032	18.7	188	0.00045271
20.2057	-0.0176575	18.8	189	0.000651044
20.3057	-0.0176239	18.9	190	0.000111895
20.4057	-0.0176056	19	191	9.66216e-05
20.5057	-0.0175842	19.1	192	0.000289914
20.6057	-0.0175537	19.2	193	0.000371312
20.7057	-0.0175018	19.3	194	0.000666318
20.8057	-0.017514	19.4	195	-0.000727369	dWE(1).Potential/dt < 1E-06 V/s
20.9057	-0.017572	19.5	196	-0.000747659	dWE(1).Potential/dt < 1E-06 V/s
21.0057	-0.0174469	19.6	197	0.00292964
21.1057	-0.0173309	19.7	198	0.00047305
21.2057	-0.0172729	19.8	199	0.00012715
21.3057	-0.0172424	19.9	200	0.000269568
21.4057	-0.0172333	20	201	5.07881e-06
21.5057	-0.0171906	20.1	202	0.000778238
21.6057	-0.0171814	20.2	203	-0.000300134	dWE(1).Potential/dt < 1E-06 V/s
21.7057	-0.0171234	20.3	204	0.00109867
21.8057	-0.0171326	20.4	205	-0.000813833	dWE(1).Potential/dt < 1E-06 V/s
21.9057	-0.0171112	20.5	206	0.000691737
22.0057	-0.0170959	20.6	207	1.24176e-08	dWE(1).Potential/dt < 1E-06 V/s
22.1057	-0.0170837	20.7	208	0.000117011
22.2057	-0.0170837	20.8	209	-9.15862e-05	dWE(1).Potential/dt < 1E-06 V/s
22.3057	-0.0170929	20.9	210	-0.00012715	dWE(1).Potential/dt < 1E-06 V/s
22.4057	-0.0170715	21	211	0.000498437
22.5057	-0.017099	21.1	212	-0.000783261	dWE(1).Potential/dt < 1E-06 V/s
22.6057	-0.0171265	21.2	213	-0.000111945	dWE(1).Potential/dt < 1E-06 V/s
22.7057	-0.0171021	21.3	214	0.0006765
22.8057	-0.0171021	21.4	215	-0.000376409	dWE(1).Potential/dt < 1E-06 V/s
22.9057	-0.0171082	21.5	216	-3.04915e-05	dWE(1).Potential/dt < 1E-06 V/s
23.0057	-0.0171539	21.6	217	-0.000768018	dWE(1).Potential/dt < 1E-06 V/s
23.1057	-0.0171509	21.7	218	0.000569659
23.2057	-0.0170898	21.8	219	0.000930788
23.3057	-0.017099	21.9	220	-0.000869743	dWE(1).Potential/dt < 1E-06 V/s
23.4057	-0.0170013	22	221	0.00210062
23.5057	-0.0169464	22.1	222	-0.000162745	dWE(1).Potential/dt < 1E-06 V/s
23.6057	-0.0170044	22.2	223	-0.00137841	dWE(1).Potential/dt < 1E-06 V/s
23.7057	-0.0170013	22.3	224	0.000915589
23.8057	-0.0170135	22.4	225	-0.000452703	dWE(1).Potential/dt < 1E-06 V/s
23.9057	-0.0170471	22.5	226	-0.000462824	dWE(1).Potential/dt < 1E-06 V/s
24.0057	-0.0170593	22.6	227	0.000127144
24.1057	-0.017099	22.7	228	-0.000696803	dWE(1).Potential/dt < 1E-06 V/s
24.2057	-0.0170959	22.8	229	0.000478066
24.3057	-0.0171173	22.9	230	-0.000559464	dWE(1).Potential/dt < 1E-06 V/s
24.4057	-0.0171295	23	231	3.56076e-05
24.5057	-0.0171448	23.1	232	-0.00020856	dWE(1).Potential/dt < 1E-06 V/s
24.6057	-0.0171967	23.2	233	-0.000813814	dWE(1).Potential/dt < 1E-06 V/s
24.7057	-0.0172119	23.3	234	0.000274672
24.8057	-0.017218	23.4	235	-0.000106823	dWE(1).Potential/dt < 1E-06 V/s
24.9057	-0.0172302	23.5	236	-0.000203401	dWE(1).Potential/dt < 1E-06 V/s
25.0057	-0.0172363	23.6	237	1.01576e-05
25.1057	-0.0172516	23.7	238	-0.00024924	dWE(1).Potential/dt < 1E-06 V/s
25.2057	-0.0172821	23.8	239	-0.000401822	dWE(1).Potential/dt < 1E-06 V/s
25.3057	-0.0173676	23.9	240	-0.00126139	dWE(1).Potential/dt < 1E-06 V/s
25.4057	-0.017395	24	241	0.000391646
25.5057	-0.0172882	24.1	242	0.00199382
25.6057	-0.0172668	24.2	243	-0.000946037	dWE(1).Potential/dt < 1E-06 V/s
25.7057	-0.0173157	24.3	244	-0.00078842	dWE(1).Potential/dt < 1E-06 V/s
25.8057	-0.0173218	24.4	245	0.000529016
25.9057	-0.017337	24.5	246	-0.000371293	dWE(1).Potential/dt < 1E-06 V/s
26.0057	-0.0173553	24.6	247	-0.000178032	dWE(1).Potential/dt < 1E-06 V/s
26.1057	-0.0173431	24.7	248	0.000386598
26.2057	-0.0173584	24.8	249	-0.000483232	dWE(1).Potential/dt < 1E-06 V/s
26.3057	-0.017392	24.9	250	-0.000396762	dWE(1).Potential/dt < 1E-06 V/s
26.4057	-0.0174133	25	251	-5.08192e-05	dWE(1).Potential/dt < 1E-06 V/s
26.5057	-0.0175262	25.1	252	-0.00193279	dWE(1).Potential/dt < 1E-06 V/s
26.6057	-0.0175293	25.2	253	0.00119014
26.7057	-0.0174652	25.3	254	0.000834179
26.8057	-0.0175537	25.4	255	-0.00238042	dWE(1).Potential/dt < 1E-06 V/s
26.9057	-0.0175751	25.5	256	0.000854519
27.0057	-0.0176117	25.6	257	-0.000717149	dWE(1).Potential/dt < 1E-06 V/s
27.1057	-0.0176758	25.7	258	-0.000818912	dWE(1).Potential/dt < 1E-06 V/s
27.2057	-0.0177429	25.8	259	-0.000605248	dWE(1).Potential/dt < 1E-06 V/s
27.3057	-0.0177277	25.9	260	0.000849378
27.4057	-0.0178101	26	261	-0.00191241	dWE(1).Potential/dt < 1E-06 V/s
27.5057	-0.0178162	26.1	262	0.000900266
27.6057	-0.0178284	26.2	263	-0.000427278	dWE(1).Potential/dt < 1E-06 V/s
27.7057	-0.0177826	26.3	264	0.000961336
27.8057	-0.0177734	26.4	265	-0.000406907	dWE(1).Potential/dt < 1E-06 V/s
27.9057	-0.0178375	26.5	266	-0.00112915	dWE(1).Potential/dt < 1E-06 V/s
28.0057	-0.0178619	26.6	267	0.000330613
28.1057	-0.0179291	26.7	268	-0.00115969	dWE(1).Potential/dt < 1E-06 V/s
28.2057	-0.0179779	26.8	269	-0.000193243	dWE(1).Potential/dt < 1E-06 V/s
28.3057	-0.0180573	26.9	270	-0.00110883	dWE(1).Potential/dt < 1E-06 V/s
28.4057	-0.0180756	27	271	0.000427291
28.5057	-0.0181244	27.1	272	-0.000946112	dWE(1).Potential/dt < 1E-06 V/s
28.6057	-0.0181854	27.2	273	-0.000610345	dWE(1).Potential/dt < 1E-06 V/s
28.7057	-0.0182312	27.3	274	-0.000289933	dWE(1).Potential/dt < 1E-06 V/s
28.8057	-0.0182709	27.4	275	-0.000396731	dWE(1).Potential/dt < 1E-06 V/s
28.9057	-0.0182892	27.5	276	-2.53941e-05	dWE(1).Potential/dt < 1E-06 V/s
29.0057	-0.0183289	27.6	277	-0.000645978	dWE(1).Potential/dt < 1E-06 V/s
29.1057	-0.018396	27.7	278	-0.000829045	dWE(1).Potential/dt < 1E-06 V/s
29.2057	-0.0184387	27.8	279	-0.000132279	dWE(1).Potential/dt < 1E-06 V/s
29.3057	-0.0185028	27.9	280	-0.000900216	dWE(1).Potential/dt < 1E-06 V/s
29.4057	-0.0185608	28	281	-0.000457819	dWE(1).Potential/dt < 1E-06 V/s
29.5057	-0.0185669	28.1	282	0.000350978
29.6057	-0.0186462	28.2	283	-0.00157675	dWE(1).Potential/dt < 1E-06 V/s
29.7057	-0.018689	28.3	284	0.000122047
29.8057	-0.0187988	28.4	285	-0.00178018	dWE(1).Potential/dt < 1E-06 V/s
29.9057	-0.0188171	28.5	286	0.000803644
30.0057	-0.0187469	28.6	287	0.00113424
30.1057	-0.0187836	28.7	288	-0.00155133	dWE(1).Potential/dt < 1E-06 V/s
30.2057	-0.0183746	28.8	289	0.0081584
30.3057	-0.0189453	28.9	290	-0.0153554	dWE(1).Potential/dt < 1E-06 V/s
30.4057	-0.0190887	29	291	0.00539141
30.5057	-0.0192322	29.1	292	-0.00285848	dWE(1).Potential/dt < 1E-06 V/s
30.6057	-0.0196381	29.2	293	-0.0062459	dWE(1).Potential/dt < 1E-06 V/s
30.7057	-0.0199036	29.3	294	-0.000610376	dWE(1).Potential/dt < 1E-06 V/s
30.8057	-0.0195129	29.4	295	0.00890606
30.9057	-0.0192047	29.5	296	0.000208542
31.0057	-0.0190613	29.6	297	0.00033568
31.1057	-0.019223	29.7	298	-0.00361126	dWE(1).Potential/dt < 1E-06 V/s
31.2057	-0.0195465	29.8	299	-0.00356546	dWE(1).Potential/dt < 1E-06 V/s
31.3057	-0.0196228	29.9	300	0.00183613
31.4057	-0.0197021	30	301	-0.00164284	dWE(1).Potential/dt < 1E-06 V/s
31.5057	-0.019812	30.1	302	-0.00134279	dWE(1).Potential/dt < 1E-06 V/s
31.6057	-0.019931	30.2	303	-0.0011647	dWE(1).Potential/dt < 1E-06 V/s
31.7057	-0.0199585	30.3	304	0.000518771
31.8057	-0.020047	30.4	305	-0.00169883	dWE(1).Potential/dt < 1E-06 V/s
31.9057	-0.0201172	30.5	306	-0.000345868	dWE(1).Potential/dt < 1E-06 V/s
32.0057	-0.020108	30.6	307	0.000691737
32.1057	-0.0201843	30.7	308	-0.00173952	dWE(1).Potential/dt < 1E-06 V/s
32.2057	-0.0202789	30.8	309	-0.000813796	dWE(1).Potential/dt < 1E-06 V/s
32.3057	-0.0203583	30.9	310	-0.000605248	dWE(1).Potential/dt < 1E-06 V/s
32.4057	-0.0204041	31	311	-0.000228869	dWE(1).Potential/dt < 1E-06 V/s
32.5057	-0.0204651	31.1	312	-0.000849391	dWE(1).Potential/dt < 1E-06 V/s
32.6057	-0.0205566	31.2	313	-0.00111897	dWE(1).Potential/dt < 1E-06 V/s
32.7057	-0.0206207	31.3	314	-0.000310279	dWE(1).Potential/dt < 1E-06 V/s
32.8057	-0.020697	31.4	315	-0.000956195	dWE(1).Potential/dt < 1E-06 V/s
32.9057	-0.020694	31.5	316	0.000732454
33.0057	-0.0206848	31.6	317	-0.000122084	dWE(1).Potential/dt < 1E-06 V/s
33.1057	-0.0207123	31.7	318	-0.000600212	dWE(1).Potential/dt < 1E-06 V/s
33.2057	-0.0207581	31.8	319	-0.000488249	dWE(1).Potential/dt < 1E-06 V/s
33.3057	-0.0208069	31.9	320	-0.000452654	dWE(1).Potential/dt < 1E-06 V/s
33.4057	-0.0208282	32	321	2.53878e-05
33.5057	-0.0208374	32.1	322	-8.13541e-05	dWE(1).Potential/dt < 1E-06 V/s
33.6057	-0.0208984	32.2	323	-0.00108339	dWE(1).Potential/dt < 1E-06 V/s
33.7057	-0.0209656	32.3	324	-0.000549331	dWE(1).Potential/dt < 1E-06 V/s
33.8057	-0.02099	32.4	325	0.000132266
33.9057	-0.021048	32.5	326	-0.00100203	dWE(1).Potential/dt < 1E-06 V/s
34.0057	-0.021051	32.6	327	0.000539198
34.1057	-0.0210968	32.7	328	-0.000996943	dWE(1).Potential/dt < 1E-06 V/s
34.2057	-0.0211243	32.8	329	2.03215e-05
34.3057	-0.0211304	32.9	330	5.59725e-05
34.4057	-0.0211578	33	331	-0.000523881	dWE(1).Potential/dt < 1E-06 V/s
34.5057	-0.0211945	33.1	332	-0.000371331	dWE(1).Potential/dt < 1E-06 V/s
34.6057	-0.021225	33.2	333	-0.000223778	dWE(1).Potential/dt < 1E-06 V/s
34.7057	-0.0212433	33.3	334	-0.000101707	dWE(1).Potential/dt < 1E-06 V/s
34.8057	-0.0212524	33.4	335	-5.59787e-05	dWE(1).Potential/dt < 1E-06 V/s
34.9057	-0.0212463	33.5	336	0.000157679
35.0057	-0.0212708	33.6	337	-0.000549294	dWE(1).Potential/dt < 1E-06 V/s
35.1057	-0.0212921	33.7	338	-8.64888e-05	dWE(1).Potential/dt < 1E-06 V/s
35.2057	-0.021286	33.8	339	0.000279775
35.3057	-0.0212952	33.9	340	-0.000310267	dWE(1).Potential/dt < 1E-06 V/s
35.4057	-0.0212921	34	341	0.000183067
35.5057	-0.0213013	34.1	342	-0.000233923	dWE(1).Potential/dt < 1E-06 V/s
35.6057	-0.0213287	34.2	343	-0.000386592	dWE(1).Potential/dt < 1E-06 V/s
35.7057	-0.0213287	34.3	344	0.000289908
35.8057	-0.0213318	34.4	345	-0.000147497	dWE(1).Potential/dt < 1E-06 V/s
35.9057	-0.0212952	34.5	346	0.000706998
36.0057	-0.0213196	34.6	347	-0.000885017	dWE(1).Potential/dt < 1E-06 V/s
36.1057	-0.0213013	34.7	348	0.000742599
36.2057	-0.0213196	34.8	349	-0.000630673	dWE(1).Potential/dt < 1E-06 V/s
36.3057	-0.0213257	34.9	350	0.000162758
36.4057	-0.0212982	35	351	0.000513668
36.5057	-0.0212921	35.1	352	-0.000228869	dWE(1).Potential/dt < 1E-06 V/s
36.6057	-0.0212921	35.2	353	2.03587e-05
36.7057	-0.021283	35.3	354	0.000188189
36.8057	-0.0212799	35.4	355	-5.08564e-05	dWE(1).Potential/dt < 1E-06 V/s
36.9057	-0.0212677	35.5	356	0.000218656
37.0057	-0.0212128	35.6	357	0.000874884
37.1057	-0.0212067	35.7	358	-0.000488317	dWE(1).Potential/dt < 1E-06 V/s
37.2057	-0.0212097	35.8	359	5.59663e-05
37.3057	-0.021228	35.9	360	-0.000279732	dWE(1).Potential/dt < 1E-06 V/s
37.4057	-0.0212524	36	361	-0.000244168	dWE(1).Potential/dt < 1E-06 V/s
37.5057	-0.0212616	36.1	362	5.59538e-05
37.6057	-0.0212555	36.2	363	0.000137351
37.7057	-0.021225	36.3	364	0.000457751
37.8057	-0.0212158	36.4	365	-0.000167855	dWE(1).Potential/dt < 1E-06 V/s
37.9057	-0.0211945	36.5	366	0.000386586
38.0057	-0.0211639	36.6	367	0.000340765
38.1057	-0.0211517	36.7	368	-6.1014e-05	dWE(1).Potential/dt < 1E-06 V/s
38.2057	-0.0211731	36.8	369	-0.000432332	dWE(1).Potential/dt < 1E-06 V/s
38.3057	-0.02117	36.9	370	0.000345831
38.4057	-0.021167	37	371	-5.08005e-05	dWE(1).Potential/dt < 1E-06 V/s
38.5057	-0.0211487	37.1	372	0.000310236
38.6057	-0.0211517	37.2	373	-0.000259373	dWE(1).Potential/dt < 1E-06 V/s
38.7057	-0.0211426	37.3	374	0.000264483
38.8057	-0.021109	37.4	375	0.000498419
38.9057	-0.021106	37.5	376	-0.000305114	dWE(1).Potential/dt < 1E-06 V/s
39.0057	-0.021106	37.6	377	7.62877e-05
39.1057	-0.0210632	37.7	378	0.000793443
39.2057	-0.0210693	37.8	379	-0.000610339	dWE(1).Potential/dt < 1E-06 V/s
39.3057	-0.0210693	37.9	380	0.000213596
39.4057	-0.0210144	38	381	0.000986761
39.5057	-0.0210083	38.1	382	-0.000529004	dWE(1).Potential/dt < 1E-06 V/s
39.6057	-0.0209991	38.2	383	0.000279782
39.7057	-0.0209686	38.3	384	0.000473025
39.8057	-0.0209442	38.4	385	0.000122078
39.9057	-0.0209351	38.5	386	-1.52861e-05	dWE(1).Potential/dt < 1E-06 V/s
40.0057	-0.0208954	38.6	387	0.000701907
40.1057	-0.0208954	38.7	388	-0.000432314	dWE(1).Potential/dt < 1E-06 V/s
40.2057	-0.0208649	38.8	389	0.000691737
40.3057	-0.0208374	38.9	390	0.000147528
40.4057	-0.0207977	39	391	0.000508583
40.5057	-0.020752	39.1	392	0.000467952
40.6057	-0.0207275	39.2	393	4.57652e-05
40.7057	-0.0206909	39.3	394	0.000539174
40.8057	-0.0206543	39.4	395	0.000325516
40.9057	-0.0206207	39.5	396	0.000310223
41.0057	-0.0206055	39.6	397	1.02073e-05
41.1057	-0.0205536	39.7	398	0.000885023
41.2057	-0.0204865	39.8	399	0.000676469
41.3057	-0.0204742	39.9	400	-0.000386604	dWE(1).Potential/dt < 1E-06 V/s
41.4057	-0.0204376	40	401	0.000752782
41.5057	-0.0203583	40.1	402	0.00106816
41.6057	-0.0203369	40.2	403	-0.000412029	dWE(1).Potential/dt < 1E-06 V/s
41.7057	-0.0202667	40.3	404	0.00130212
41.8057	-0.0202179	40.4	405	0.000147484
41.9057	-0.0201813	40.5	406	0.000335711
42.0057	-0.0201172	40.6	407	0.000910399
42.1057	-0.0200775	40.7	408	0.00010175
42.2057	-0.0200165	40.8	409	0.000869725
42.3057	-0.0199554	40.9	410	0.00053913
42.4057	-0.0198914	41	411	0.000666318
42.5057	-0.0198395	41.1	412	0.000406889
42.6057	-0.0197937	41.2	413	0.000447618
42.7057	-0.0196991	41.3	414	0.00137328
42.8057	-0.0196014	41.4	415	0.000839246
42.9057	-0.0195404	41.5	416	0.000294981
43.0057	-0.0194427	41.6	417	0.00140381
43.1057	-0.0193939	41.7	418	-4.06864e-05	dWE(1).Potential/dt < 1E-06 V/s
43.2057	-0.0193085	41.8	419	0.00132242
43.3057	-0.0192413	41.9	420	0.000396756
43.4057	-0.0191559	42	421	0.00106809
43.5057	-0.0190491	42.1	422	0.00118512
43.6057	-0.0189514	42.2	423	0.000829076
43.7057	-0.0188873	42.3	424	0.000391609
43.8057	-0.0187622	42.4	425	0.00187177
43.9057	-0.0186737	42.5	426	0.000376329
44.0057	-0.0185699	42.6	427	0.00128685
44.1057	-0.0184692	42.7	428	0.00093077
44.2057	-0.018399	42.8	429	0.000457776
44.3057	-0.0183105	42.9	430	0.00113932
44.4057	-0.0181915	43	431	0.00138348
44.5057	-0.0181061	43.1	432	0.000473025
44.6057	-0.017981	43.2	433	0.00169369
44.7057	-0.0179016	43.3	434	0.000279806
44.8057	-0.0177795	43.4	435	0.00172932
44.9057	-0.0176697	43.5	436	0.000854488
45.0057	-0.0175781	43.6	437	0.000803632
45.1057	-0.0174408	43.7	438	0.00181579
45.2057	-0.0173523	43.8	439	0.000325541
45.3057	-0.0172394	43.9	440	0.00149533
45.4057	-0.0171234	44	441	0.00110375
45.5057	-0.0170227	44.1	442	0.000869743
45.6057	-0.0169098	44.2	443	0.00128174
45.7057	-0.0168365	44.3	444	0.000361117
45.8057	-0.0167206	44.4	445	0.00164796
45.9057	-0.0166199	44.5	446	0.00073752
46.0057	-0.0165161	44.6	447	0.00111387
46.1057	-0.016568	44.7	448	-0.00182595	dWE(1).Potential/dt < 1E-06 V/s
46.2057	-0.0162201	44.8	449	0.0073293
46.3057	-0.0161682	44.9	450	-0.00328063	dWE(1).Potential/dt < 1E-06 V/s
46.4057	-0.0161194	45	451	0.00144955
46.5057	-0.016037	45.1	452	0.00111394
46.6057	-0.0159546	45.2	453	0.00071207
46.7057	-0.0158722	45.3	454	0.000823966
46.8057	-0.0157959	45.4	455	0.000712101
46.9057	-0.0157104	45.5	456	0.000951135
47.0057	-0.0156372	45.6	457	0.000600132
47.1057	-0.0155762	45.7	458	0.000549344
47.2057	-0.0155243	45.8	459	0.000483189
47.3057	-0.015451	45.9	460	0.000940996
47.4057	-0.0153961	46	461	0.000325475
47.5057	-0.0153564	46.1	462	0.000330613
47.6057	-0.0152863	46.2	463	0.00100711
47.7057	-0.0152161	46.3	464	0.000600169
47.8057	-0.0152008	46.4	465	-0.000305194	dWE(1).Potential/dt < 1E-06 V/s
47.9057	-0.0151367	46.5	466	0.00123087
48.0057	-0.0151123	46.6	467	-0.000249231	dWE(1).Potential/dt < 1E-06 V/s
48.1057	-0.0150665	46.7	468	0.000768046
48.2057	-0.0150116	46.8	469	0.000554422
48.3057	-0.0149872	46.9	470	-4.06988e-05	dWE(1).Potential/dt < 1E-06 V/s
48.4057	-0.0149506	47	471	0.000569653
48.5057	-0.0149292	47.1	472	4.57807e-05
48.6057	-0.0149414	47.2	473	-0.000350932	dWE(1).Potential/dt < 1E-06 V/s
48.7057	-0.0149231	47.3	474	0.000549291
48.8057	-0.01492	47.4	475	-0.000198353	dWE(1).Potential/dt < 1E-06 V/s
48.9057	-0.0148956	47.5	476	0.000473028
49.0057	-0.0148743	47.6	477	0.000116974
49.1057	-0.014859	47.7	478	0.000111917
49.2057	-0.014856	47.8	479	-5.08471e-05	dWE(1).Potential/dt < 1E-06 V/s
49.3057	-0.0148621	47.9	480	-9.66744e-05	dWE(1).Potential/dt < 1E-06 V/s
49.4057	-0.014859	48	481	0.000137348
49.5057	-0.0148315	48.1	482	0.0004476
49.6057	-0.0148773	48.2	483	-0.0011495	dWE(1).Potential/dt < 1E-06 V/s
49.7057	-0.01492	48.3	484	-0.00015767	dWE(1).Potential/dt < 1E-06 V/s
49.8057	-0.0149475	48.4	485	-0.000157654	dWE(1).Potential/dt < 1E-06 V/s
49.9057	-0.0149445	48.5	486	0.000233923
50.0057	-0.0149445	48.6	487	-0.000127122	dWE(1).Potential/dt < 1E-06 V/s
50.1057	-0.0149536	48.7	488	-0.00015766	dWE(1).Potential/dt < 1E-06 V/s
50.2057	-0.0149719	48.8	489	-0.0002289	dWE(1).Potential/dt < 1E-06 V/s
50.3057	-0.0150116	48.9	490	-0.000544234	dWE(1).Potential/dt < 1E-06 V/s
50.4057	-0.0150421	49	491	-0.000157654	dWE(1).Potential/dt < 1E-06 V/s
50.5057	-0.0150848	49.1	492	-0.000559473	dWE(1).Potential/dt < 1E-06 V/s
50.6057	-0.0151367	49.2	493	-0.000554438	dWE(1).Potential/dt < 1E-06 V/s
50.7057	-0.0151459	49.3	494	0.000295027
50.8057	-0.0151794	49.4	495	-0.000681585	dWE(1).Potential/dt < 1E-06 V/s
50.9057	-0.0152283	49.5	496	-0.000534033	dWE(1).Potential/dt < 1E-06 V/s
51.0057	-0.0152496	49.6	497	6.61053e-05
51.1057	-0.0153107	49.7	498	-0.00103249	dWE(1).Potential/dt < 1E-06 V/s
51.2057	-0.0153534	49.8	499	-0.000142405	dWE(1).Potential/dt < 1E-06 V/s
51.3057	-0.0153931	49.9	500	-0.000432351	dWE(1).Potential/dt < 1E-06 V/s
51.4057	-0.0154297	50	501	-0.000350941	dWE(1).Potential/dt < 1E-06 V/s
51.5057	-0.0154663	50.1	502	-0.000376388	dWE(1).Potential/dt < 1E-06 V/s
51.6057	-0.0155212	50.2	503	-0.000701935	dWE(1).Potential/dt < 1E-06 V/s
51.7057	-0.0155701	50.3	504	-0.000376388	dWE(1).Potential/dt < 1E-06 V/s
51.8057	-0.0156281	50.4	505	-0.000676419	dWE(1).Potential/dt < 1E-06 V/s
51.9057	-0.0157196	50.5	506	-0.00116476	dWE(1).Potential/dt < 1E-06 V/s
52.0057	-0.0157288	50.6	507	0.000706967
52.1057	-0.0157867	50.7	508	-0.00126137	dWE(1).Potential/dt < 1E-06 V/s
52.2057	-0.0158508	50.8	509	-0.000529028	dWE(1).Potential/dt < 1E-06 V/s
52.3057	-0.0158875	50.9	510	-0.000116937	dWE(1).Potential/dt < 1E-06 V/s
52.4057	-0.0159119	51	511	-0.000234004	dWE(1).Potential/dt < 1E-06 V/s
52.5057	-0.0159637	51.1	512	-0.000788333	dWE(1).Potential/dt < 1E-06 V/s
52.6057	-0.0160339	51.2	513	-0.000762977	dWE(1).Potential/dt < 1E-06 V/s
52.7057	-0.0161255	51.3	514	-0.00103251	dWE(1).Potential/dt < 1E-06 V/s
52.8057	-0.0161591	51.4	515	0.000218712
52.9057	-0.0162323	51.5	516	-0.00125633	dWE(1).Potential/dt < 1E-06 V/s
53.0057	-0.016272	51.6	517	1.52613e-05
53.1057	-0.016333	51.7	518	-0.000900253	dWE(1).Potential/dt < 1E-06 V/s
53.2057	-0.0164032	51.8	519	-0.000706973	dWE(1).Potential/dt < 1E-06 V/s
53.3057	-0.0164581	51.9	520	-0.000391646	dWE(1).Potential/dt < 1E-06 V/s
53.4057	-0.0165253	52	521	-0.000824003	dWE(1).Potential/dt < 1E-06 V/s
53.5057	-0.0165802	52.1	522	-0.000406876	dWE(1).Potential/dt < 1E-06 V/s
53.6057	-0.016626	52.2	523	-0.000422181	dWE(1).Potential/dt < 1E-06 V/s
53.7057	-0.0166992	52.3	524	-0.000991846	dWE(1).Potential/dt < 1E-06 V/s
53.8057	-0.0167389	52.4	525	-2.53878e-05	dWE(1).Potential/dt < 1E-06 V/s
53.9057	-0.0168274	52.5	526	-0.00140384	dWE(1).Potential/dt < 1E-06 V/s
54.0057	-0.016864	52.6	527	0.000228913
54.1057	-0.0168945	52.7	528	-0.000427241	dWE(1).Potential/dt < 1E-06 V/s
54.2057	-0.0169647	52.8	529	-0.00105288	dWE(1).Potential/dt < 1E-06 V/s
54.3057	-0.0170288	52.9	530	-0.000457751	dWE(1).Potential/dt < 1E-06 V/s
54.4057	-0.017041	53	531	0.00028989
54.5057	-0.0170868	53.1	532	-0.000910448	dWE(1).Potential/dt < 1E-06 V/s
54.6057	-0.0171265	53.2	533	-0.000233973	dWE(1).Potential/dt < 1E-06 V/s
54.7057	-0.0171783	53.3	534	-0.000640862	dWE(1).Potential/dt < 1E-06 V/s
54.8057	-0.0172272	53.4	535	-0.000422162	dWE(1).Potential/dt < 1E-06 V/s
54.9057	-0.0172638	53.5	536	-0.000274672	dWE(1).Potential/dt < 1E-06 V/s
55.0057	-0.0173126	53.6	537	-0.000630654	dWE(1).Potential/dt < 1E-06 V/s
55.1057	-0.0173615	53.7	538	-0.000447656	dWE(1).Potential/dt < 1E-06 V/s
55.2057	-0.0174103	53.8	539	-0.000488255	dWE(1).Potential/dt < 1E-06 V/s
55.3057	-0.0174347	53.9	540	-4.06864e-05	dWE(1).Potential/dt < 1E-06 V/s
55.4057	-0.0174683	54	541	-0.000493415	dWE(1).Potential/dt < 1E-06 V/s
55.5057	-0.017514	54.1	542	-0.000528966	dWE(1).Potential/dt < 1E-06 V/s
55.6057	-0.0175537	54.2	543	-0.000305182	dWE(1).Potential/dt < 1E-06 V/s
55.7057	-0.0175934	54.3	544	-0.000417046	dWE(1).Potential/dt < 1E-06 V/s
55.8057	-0.017627	54.4	545	-0.000284823	dWE(1).Potential/dt < 1E-06 V/s
55.9057	-0.0176666	54.5	546	-0.000467965	dWE(1).Potential/dt < 1E-06 V/s
56.0057	-0.0177124	54.6	547	-0.000488286	dWE(1).Potential/dt < 1E-06 V/s
56.1057	-0.017749	54.7	548	-0.00026955	dWE(1).Potential/dt < 1E-06 V/s
56.2057	-0.0177734	54.8	549	-0.000172965	dWE(1).Potential/dt < 1E-06 V/s
56.3057	-0.0178162	54.9	550	-0.000620497	dWE(1).Potential/dt < 1E-06 V/s
56.4057	-0.0178375	55	551	2.53941e-05
56.5057	-0.0178619	55.1	552	-0.000340752	dWE(1).Potential/dt < 1E-06 V/s
56.6057	-0.0178955	55.2	553	-0.000401866	dWE(1).Potential/dt < 1E-06 V/s
56.7057	-0.0179199	55.3	554	-0.000137314	dWE(1).Potential/dt < 1E-06 V/s
56.8057	-0.0179199	55.4	555	0.000172947
56.9057	-0.0179443	55.5	556	-0.000528954	dWE(1).Potential/dt < 1E-06 V/s
57.0057	-0.0179626	55.6	557	-5.08564e-05	dWE(1).Potential/dt < 1E-06 V/s
57.1057	-0.017981	55.7	558	-0.000203469	dWE(1).Potential/dt < 1E-06 V/s
57.2057	-0.0180054	55.8	559	-0.000294968	dWE(1).Potential/dt < 1E-06 V/s
57.3057	-0.0180664	55.9	560	-0.000895199	dWE(1).Potential/dt < 1E-06 V/s
57.4057	-0.0180847	56	561	0.000295024
57.5057	-0.0180817	56.1	562	6.61115e-05
57.6057	-0.0180908	56.2	563	-0.000264471	dWE(1).Potential/dt < 1E-06 V/s
57.7057	-0.0181122	56.3	564	-0.00027469	dWE(1).Potential/dt < 1E-06 V/s
57.8057	-0.0181305	56.4	565	-0.000116949	dWE(1).Potential/dt < 1E-06 V/s
57.9057	-0.0181183	56.5	566	0.00036619
58.0057	-0.0181549	56.6	567	-0.000874822	dWE(1).Potential/dt < 1E-06 V/s
58.1057	-0.0182068	56.7	568	-0.000483182	dWE(1).Potential/dt < 1E-06 V/s
58.2057	-0.0182129	56.8	569	0.000371293
58.3057	-0.0182159	56.9	570	-0.000157716	dWE(1).Potential/dt < 1E-06 V/s
58.4057	-0.0182343	57	571	-0.000320412	dWE(1).Potential/dt < 1E-06 V/s
58.5057	-0.0182404	57.1	572	9.15366e-05
58.6057	-0.0182495	57.2	573	-0.000157642	dWE(1).Potential/dt < 1E-06 V/s
58.7057	-0.0182709	57.3	574	-0.000305201	dWE(1).Potential/dt < 1E-06 V/s
58.8057	-0.01828	57.4	575	5.08937e-05
58.9057	-0.0182709	57.5	576	0.000203426
59.0057	-0.0182922	57.6	577	-0.00052896	dWE(1).Potential/dt < 1E-06 V/s
59.1057	-0.0182831	57.7	578	0.000447606
59.2057	-0.0183014	57.8	579	-0.000513736	dWE(1).Potential/dt < 1E-06 V/s
59.3057	-0.0182922	57.9	580	0.000412005
59.4057	-0.0182892	58	581	-0.000111895	dWE(1).Potential/dt < 1E-06 V/s
59.5057	-0.0182892	58.1	582	-5.10986e-06	dWE(1).Potential/dt < 1E-06 V/s
59.6057	-0.0183167	58.2	583	-0.00049339	dWE(1).Potential/dt < 1E-06 V/s
59.7057	-0.0183105	58.3	584	0.000432376
59.8057	-0.0182953	58.4	585	0.000116968
59.9057	-0.0183075	58.5	586	-0.000381488	dWE(1).Potential/dt < 1E-06 V/s
60.0057	-0.0183228	58.6	587	-8.64764e-05	dWE(1).Potential/dt < 1E-06 V/s
60.1057	-0.0183044	58.7	588	0.000473037
60.2057	-0.0183319	58.8	589	-0.000768068	dWE(1).Potential/dt < 1E-06 V/s
60.3057	-0.0183441	58.9	590	0.000157741
60.4057	-0.0183655	59	591	-0.000340796	dWE(1).Potential/dt < 1E-06 V/s
60.5057	-0.0183777	59.1	592	-1.52923e-05	dWE(1).Potential/dt < 1E-06 V/s
60.6057	-0.0183899	59.2	593	-0.000152526	dWE(1).Potential/dt < 1E-06 V/s
60.7057	-0.0183716	59.3	594	0.000437392
60.8057	-0.0183746	59.4	595	-0.000310236	dWE(1).Potential/dt < 1E-06 V/s
60.9057	-0.0183777	59.5	596	4.06677e-05
61.0057	-0.0183777	59.6	597	2.54561e-05
61.1057	-0.0183777	59.7	598	-1.017e-05	dWE(1).Potential/dt < 1E-06 V/s
61.2057	-0.0183624	59.8	599	0.000279751
61.3057	-0.0183594	59.9	600	-0.000122034	dWE(1).Potential/dt < 1E-06 V/s